aX,aY,aZ,gX,gY,gZ
1.83,-0.179,9.831,0.01,0,-0.004
1.807,-0.19,9.808,0.012,-0.004,-0.005
1.778,-0.211,9.812,0.019,-0.013,-0.009
1.824,-0.231,9.812,0.004,-0.001,-0.01
1.803,-0.204,9.822,-0.002,-0.001,-0.009
1.813,-0.176,9.797,-0.003,0.001,-0.006
1.837,-0.187,9.784,0.009,-0.002,-0.004
1.824,-0.235,9.744,0.012,0.002,-0.003
1.849,-0.233,9.801,0.012,0.005,-0.003
1.811,-0.205,9.794,0.004,0.013,-0.003
1.815,-0.188,9.795,0.02,-0.004,-0.006
1.823,-0.186,9.802,0.02,-0.004,-0.006
1.803,-0.197,9.786,0.018,-0.003,-0.012
1.835,-0.217,9.804,0.018,0.001,-0.017
1.832,-0.236,9.777,0.012,0.008,-0.016
1.856,-0.24,9.797,0.004,0.018,-0.006
1.86,-0.232,9.857,0.002,0.015,-0.005
1.877,-0.221,9.83,0.007,0.009,0.002
1.879,-0.198,9.838,0.008,0.011,0.006
1.924,-0.185,9.882,0.003,0.014,0.009
1.879,-0.177,9.861,0.005,0.012,-0.001
1.874,-0.199,9.887,-0.003,0.015,-0.004
1.902,-0.171,9.884,-0.005,0.014,-0.004
1.896,-0.154,9.901,0.001,0.007,-0.005
1.874,-0.149,9.909,0.004,0.003,-0.002
1.859,-0.166,9.852,-0.002,0.003,0.003
1.824,-0.161,9.809,-0.002,0.009,0.005
1.861,-0.161,9.8,-0.016,0.018,0.015
1.756,-0.128,9.588,-0.037,0.027,0.025
1.628,-0.155,9.025,-0.065,0.061,0.06
1.389,-0.267,8.099,-0.161,0.156,0.109
1.396,-0.626,7.668,-0.407,0.339,0.171
1.152,-1.255,7.45,-0.675,0.534,0.249
1.35,-0.204,7.58,-0.668,0.752,0.274
2.297,0.403,9.192,-0.684,0.733,0.379
2.615,-0.271,11.374,-0.796,0.591,0.471
2.166,-1.747,13.843,-1.176,0.455,0.46
2.243,-1.744,14.129,-1.54,0.354,0.379
2.281,-0.569,12.585,-1.528,0.359,0.343
2.174,0.357,10.862,-1.357,0.371,0.352
1.955,0.77,9.909,-0.972,0.253,0.371
1.384,-0.061,9.621,-0.389,0.085,0.369
1.307,-0.534,9.31,0.024,-0.031,0.226
1.262,-0.871,8.754,0.094,-0.038,0.043
1.042,-1.35,9.393,-0.274,0.027,-0.22
-0.385,-2.748,10.607,-1.104,0.019,-0.396
0.522,-3.192,9.793,-1.43,-0.289,-0.067
3.612,2.552,4.057,-0.826,-0.45,0.527
5.024,-0.71,12.533,-0.159,-0.146,0.363
3.487,-1.69,13.543,1.76,-0.512,-0.206
1.842,-0.324,8.495,4.401,0.292,-0.316
-0.384,-5.111,4.314,4.466,1.044,0.132
2.118,-9.31,8.877,1.472,1.516,-0.01
-0.297,-5.044,16.032,-0.769,1.327,-0.382
-7.278,11.748,19.411,-0.853,0.603,0.304
-1.539,10.694,9.401,-0.964,0.375,1.119
4.129,1.705,5.617,0.832,0.232,0.329
2.302,1.32,10.547,1.98,-0.235,0.043
0.097,-0.332,9.082,2.559,-0.406,0.291
-0.207,-6.466,8.795,2.042,-0.458,0.281
0.063,-5.192,8.485,0.491,-0.399,0.32
1.212,-1.007,5.845,-0.886,-0.191,0.53
1.311,-1.66,4.801,-1.102,-0.014,0.618
0.919,-3.776,6.02,-0.58,0.097,0.449
0.422,-4.215,8.544,-0.288,0.134,0.177
0.44,-2.959,11.968,-0.574,-0.043,-0.036
0.516,-0.399,13.014,-1.046,-0.273,-0.136
0.305,1.39,12.714,-1.393,-0.383,-0.107
1.088,1.333,12.074,-1.452,-0.556,-0.018
1.688,2.203,12.542,-1.653,-0.744,-0.037
1.687,0.16,10.316,-1.121,-0.858,-0.173
2.822,-2.264,7.671,-0.135,-0.698,-0.443
1.985,-4.662,4.915,-0.321,-0.346,-0.744
0.86,-3.05,4.669,-0.373,-0.058,-0.724
1.093,-1.145,6.452,-0.044,-0.036,-0.281
2.522,-0.912,8.176,0.356,-0.168,-0.072
1.838,-1.894,9.55,0.443,-0.103,-0.069
0.995,-1.571,10.803,0.117,0.015,-0.122
1.07,-0.544,11.786,-0.27,0.108,-0.035
1.4,0.406,11.951,-0.407,0.119,0.088
1.563,1.033,11.77,-0.395,0.093,0.138
1.646,1.301,11.431,-0.289,0.034,0.111
1.935,1.318,10.964,-0.127,-0.011,0.051
2.056,0.959,10.552,-0.013,-0.064,0
1.998,0.383,10.317,0.032,-0.103,-0.062
1.868,0,10.01,0.06,-0.119,-0.132
1.795,-0.327,9.847,0.068,-0.109,-0.162
1.661,-0.721,9.745,0.099,-0.098,-0.15
1.699,-1.029,9.669,0.132,-0.092,-0.114
1.618,-1.233,9.728,0.169,-0.084,-0.068
1.581,-1.421,9.824,0.179,-0.067,-0.01
1.604,-1.641,10.057,0.178,-0.07,0.039
1.444,-1.815,10.168,0.148,-0.064,0.085
1.382,-1.792,10.11,0.069,-0.043,0.119
1.424,-1.488,10.144,-0.055,-0.008,0.146
1.452,-1.182,10.106,-0.1,-0.013,0.162
1.415,-0.976,9.955,-0.074,-0.018,0.151
1.45,-0.88,9.763,-0.039,-0.004,0.119
1.465,-0.852,9.695,-0.029,0.002,0.094
1.504,-0.916,9.759,-0.034,0.001,0.063
1.502,-1.092,9.845,-0.019,0.01,0.023
1.549,-1.385,9.915,0.032,0.011,-0.023
1.501,-1.498,9.915,0.046,0.017,-0.046
1.475,-1.388,9.915,0.048,0.017,-0.045

1.611,-0.52,9.976,0.005,0.004,-0.01
1.589,-0.54,9.948,-0.002,0.009,-0.005
1.603,-0.558,9.942,0.004,0.001,0.001
1.569,-0.566,9.845,0.002,-0.001,0.004
1.618,-0.543,9.891,0.002,0,0.006
1.575,-0.568,9.883,0.004,-0.004,0.006
1.605,-0.567,9.904,-0.002,-0.001,0.003
1.597,-0.586,9.91,-0.011,0.004,0.003
1.615,-0.567,9.934,-0.006,-0.001,0.004
1.615,-0.569,9.894,-0.002,-0.003,0.002
1.63,-0.569,9.88,0,-0.001,0.001
1.589,-0.567,9.873,-0.002,0.001,0.001
1.578,-0.611,9.83,0.002,0,0.001
1.607,-0.594,9.856,-0.006,0.006,-0.003
1.603,-0.577,9.845,-0.015,0.01,0
1.596,-0.547,9.885,-0.016,0.011,0.005
1.579,-0.534,9.869,-0.01,0.005,0.001
1.601,-0.532,9.901,-0.006,0,0.005
1.588,-0.52,9.89,-0.004,-0.002,0.005
1.583,-0.557,9.873,-0.013,0.007,0.006
1.577,-0.536,9.862,-0.008,0,0.002
1.614,-0.544,9.837,-0.008,0,0.001
1.62,-0.554,9.845,0.004,-0.01,-0.002
1.618,-0.562,9.827,-0.008,0.002,-0.001
1.602,-0.531,9.824,-0.005,0.002,-0.006
1.61,-0.533,9.796,0.004,-0.002,-0.005
1.59,-0.541,9.793,0.005,0,-0.008
1.575,-0.566,9.805,-0.002,0.004,-0.01
1.544,-0.541,9.836,-0.007,0.007,-0.004
1.562,-0.507,9.837,-0.009,0.013,0.003
1.558,-0.481,9.873,-0.009,0.01,0.009
1.558,-0.493,9.842,-0.006,0.013,0.01
1.574,-0.509,9.829,0.004,0.005,0.005
1.568,-0.522,9.73,0.008,0.005,0.004
1.571,-0.528,9.581,-0.012,0.02,0.009
1.466,-0.577,9.522,-0.049,0.036,0.021
1.498,-0.723,9.334,-0.084,0.049,0.037
1.354,-0.93,9.083,-0.151,0.083,0.051
1.253,-1.028,8.414,-0.257,0.168,0.073
0.834,-0.848,7.926,-0.366,0.289,0.143
1.205,-0.208,7.545,-0.427,0.518,0.302
2.235,0.04,9.184,-0.675,0.709,0.492
2.33,-0.643,11.742,-0.902,0.711,0.585
2.172,-0.974,13.543,-0.993,0.565,0.458
1.852,-1.682,14.615,-1.087,0.368,0.285
1.859,-1.961,13.183,-1.115,0.198,0.143
1.504,-0.635,10.648,-0.973,0.08,0.143
1.224,0.215,8.737,-0.812,0.032,0.216
1.413,1.064,8.849,-0.688,0.054,0.093
0.502,-0.823,10.744,-1.04,0.017,-0.103
0.34,-3.38,10.768,-1.423,-0.318,-0.14
1.633,-0.113,6.394,-0.79,-0.673,0.157
4.716,1.106,8.536,-0.099,-0.326,0.1
3.943,-0.795,11.311,1.568,-0.461,-0.196
1.329,-3.824,6.481,3.816,0.183,-0.197
-0.961,-8.588,2.851,3.248,1.057,-0.086
2.443,-10.521,7.081,0.123,1.75,-0.219
4.954,-6.779,15.998,-1.93,1.543,-0.498
-5.011,11.011,19.4,-1.376,0.949,0.053
-7.264,17.789,19.239,-0.696,0.463,1.495
0.444,3.031,3.597,1.598,0.423,0.834
5.202,-2.22,9.132,2.891,-0.304,-0.524
1.608,-1.049,10.907,3.479,-0.591,-0.218
-1.431,-6.429,7.768,3.509,-0.566,0.205
-1.009,-10.135,6.088,2.064,-0.458,0.298
0.372,-7.309,6.427,-0.198,-0.238,0.198
0.857,-2.854,8.274,-1.627,-0.067,0.284
0.692,0.429,9.331,-1.731,-0.069,0.348
0.677,2.569,10.314,-1.467,-0.281,0.004
0.704,2.774,10.806,-1.211,-0.379,-0.313
1.071,1.531,11.293,-0.736,-0.458,-0.141
1.362,-0.488,11.321,-0.523,-0.664,0.04
1.725,-0.061,12.049,-0.826,-0.919,-0.068
1.853,-0.934,9.573,-0.778,-0.913,-0.17
2.06,-4.424,8.917,-1,-0.799,-0.48
1.588,-2.999,5.828,-0.988,-0.4,-0.696
1.932,-2.499,5.335,-0.582,0.082,-0.408
0.021,-1.481,6.994,-0.188,0.187,-0.143
0.368,-1.227,8.282,0.139,-0.053,-0.044
2.181,-2.123,9.471,0.313,-0.14,-0.027
2.461,-1.654,10.503,0.155,-0.065,-0.068
1.643,-0.771,11.3,-0.262,0.027,-0.072
1.195,0.01,11.722,-0.483,0.063,0.003
1.416,0.593,11.641,-0.541,0.048,0.045
1.825,0.914,11.325,-0.51,0.033,0.032
2.004,0.771,11.021,-0.372,-0.007,0.018
2.001,0.464,10.668,-0.151,-0.074,-0.015
1.952,-0.012,10.307,0.044,-0.126,-0.084
1.932,-0.508,10.054,0.146,-0.139,-0.141
1.868,-0.904,9.854,0.199,-0.11,-0.166
1.777,-1.201,9.803,0.261,-0.097,-0.171
1.714,-1.387,9.777,0.264,-0.098,-0.147
1.656,-1.354,9.928,0.222,-0.109,-0.094
1.589,-1.27,10.094,0.186,-0.112,-0.034
1.504,-1.366,10.061,0.198,-0.116,0.013
1.456,-1.457,9.927,0.198,-0.115,0.04
1.425,-1.479,9.817,0.162,-0.095,0.062
1.384,-1.504,9.651,0.108,-0.065,0.084
1.373,-1.604,9.66,0.05,-0.022,0.083
1.404,-1.599,9.751,0.026,0.003,0.058
1.398,-1.358,9.935,0.005,0.016,0.045
1.474,-1.173,10.122,-0.005,0.011,0.043
1.482,-1.071,10.165,0.011,0.008,0.032
1.493,-1.081,10.114,0.032,-0.005,0.01

1.65,-0.361,9.952,-0.005,0.041,0.006
1.61,-0.343,9.899,-0.009,0.05,0.008
1.658,-0.395,9.894,0.004,0.044,0.005
1.641,-0.396,9.862,-0.002,0.049,0.003
1.629,-0.427,9.749,-0.007,0.054,0.006
1.582,-0.421,9.49,-0.029,0.068,0.02
1.542,-0.508,9.384,-0.096,0.097,0.047
1.64,-0.723,9.577,-0.179,0.119,0.081
1.549,-0.793,9.565,-0.244,0.129,0.119
1.477,-0.743,9.542,-0.23,0.192,0.158
1.557,-0.252,9.255,-0.282,0.313,0.156
1.728,0.194,9.755,-0.367,0.386,0.142
1.791,-0.071,10.083,-0.294,0.377,0.114
1.863,-0.436,10.294,-0.181,0.319,0.053
1.544,-0.878,10.472,-0.212,0.257,0.029
1.387,-1.049,10.49,-0.361,0.283,0.071
1.463,-0.925,10.439,-0.509,0.355,0.125
1.759,-0.551,10.453,-0.601,0.326,0.134
1.889,-0.455,10.564,-0.615,0.235,0.117
1.655,-1.384,10.731,-0.55,0.187,0.101
1.562,-1.153,11.178,-0.461,0.158,0.097
1.634,-0.172,11.482,-0.353,0.057,0.187
1.449,-0.455,11.37,-0.154,-0.045,0.249
1.14,-1.675,11.213,-0.092,-0.077,0.121
1.227,-1.677,10.643,-0.286,-0.09,0
1.296,-1.068,9.462,-0.518,-0.085,0.087
1.419,-0.36,9.156,-0.613,-0.073,0.175
1.434,0.152,9.783,-0.76,-0.039,0.154
0.491,-1.559,13.025,-1.262,0.057,-0.024
0.426,-2.582,13.794,-1.518,-0.207,-0.046
1.255,1.408,6.591,-1.057,-0.727,0.403
3.435,4.599,3.477,-0.039,-0.444,0.544
3.966,0.623,11.313,1.434,-0.669,0.183
2.522,0.166,13.12,3.125,-0.531,-0.166
1.504,0.835,5.24,4.7,0.296,-0.263
-1.361,-6.114,-3.091,4.502,1.187,0.02
0.367,-19.334,7.318,0.823,1.758,-0.162
8.08,-12.367,18.755,-2.608,1.612,-0.887
-2.503,10.937,17.243,-2.531,1.086,-0.181
-11.551,15.813,19.442,-2.434,0.197,1.613
-1.884,11.277,-0.479,0.081,0.59,1.123
8.725,-0.086,6.586,1.176,0.078,-0.234
3.89,-0.044,10.739,2.77,-0.535,-0.561
-1.091,-4.899,7.522,2.991,-0.547,-0.048
-1.383,-9.164,6.926,1.402,-0.416,0.009
0.395,-4.881,7.128,-0.529,-0.113,0.226
1.742,0.258,7.219,-1.603,0.107,0.529
1.119,-0.063,7.782,-1.338,0.123,0.433
0.342,-2.021,8.379,-0.567,0.036,0.07
0.419,-1.838,11,-0.234,-0.106,-0.268
0.622,-0.53,11.909,-0.24,-0.295,-0.281
0.746,0.163,10.512,-0.267,-0.45,-0.142
0.984,1.199,9.888,-0.287,-0.484,-0.073
1.552,0.672,9.948,-0.034,-0.584,0.013
2.237,1.085,9.498,-0.086,-0.738,-0.105
1.505,2.441,11.93,-0.778,-0.758,-0.185
1.937,1.959,12.528,-0.578,-0.648,-0.028
2.719,-7.191,7.616,-0.03,-0.278,-0.393
1.443,-4.485,6.343,-0.824,0.065,-1.002
-0.585,0.986,6.459,-1.665,0.198,-0.72
1.502,1.458,7.221,-1.088,0.084,-0.026
3.637,0.42,8.305,-0.005,-0.077,0.245
2.764,-0.635,9.916,0.401,-0.086,0.118
1.08,-1.3,11.333,0.392,-0.019,0.047
1.099,-1.622,12.159,0.152,0.009,0.041
1.648,-0.981,12.362,-0.123,-0.001,0.032
1.737,0.123,11.899,-0.294,-0.024,0.053
1.855,0.796,11.433,-0.334,-0.054,0.065
2.02,0.967,10.77,-0.255,-0.096,0.036
1.917,0.742,10.297,-0.203,-0.093,-0.025
1.775,0.258,9.987,-0.147,-0.069,-0.083
1.701,-0.395,9.82,-0.002,-0.059,-0.139
1.665,-0.908,9.923,0.137,-0.07,-0.161
1.624,-1.157,10.147,0.224,-0.097,-0.139
1.568,-1.263,10.338,0.278,-0.123,-0.103
1.507,-1.373,10.351,0.312,-0.147,-0.082
1.397,-1.437,10.198,0.318,-0.14,-0.069
1.321,-1.312,9.891,0.281,-0.089,-0.034
1.35,-1.185,9.559,0.249,-0.038,0.01
1.373,-1.125,9.417,0.207,0.017,0.041
1.423,-1.064,9.609,0.105,0.063,0.057
1.451,-0.833,9.851,-0.007,0.067,0.074
1.5,-0.716,10.263,-0.087,0.048,0.084
1.462,-0.659,10.481,-0.117,0.04,0.055
1.476,-0.578,10.557,-0.107,0.033,0.01
1.543,-0.542,10.45,-0.063,0.023,-0.021
1.579,-0.48,10.31,-0.027,0.016,-0.037
1.604,-0.511,10.289,0.003,-0.005,-0.037
1.636,-0.569,10.127,0.047,-0.035,-0.035
1.565,-0.564,9.586,0.103,-0.032,-0.036
1.497,-0.612,9.217,0.123,0.015,-0.039
1.526,-0.661,9.135,0.109,0.052,-0.036
1.553,-0.76,9.501,0.056,0.067,-0.041
1.587,-0.701,9.839,0.007,0.059,-0.05
1.569,-0.616,9.984,-0.007,0.037,-0.059
1.626,-0.445,10.107,-0.04,0.027,-0.054
1.705,-0.295,10.229,-0.07,0.016,-0.026
1.721,-0.278,10.261,-0.051,-0.008,0.006
1.707,-0.336,10.157,-0.014,-0.027,0.01
1.692,-0.414,9.927,0.012,-0.033,-0.003
1.699,-0.428,9.664,0.022,-0.015,-0.011
1.706,-0.515,9.57,0.032,-0.014,-0.019
1.705,-0.58,9.616,0.032,-0.01,-0.033
1.653,-0.647,9.638,0.025,0.001,-0.041

1.948,-0.23,9.765,-0.12,0.108,0.052
1.973,-0.246,9.787,-0.116,0.11,0.052
1.974,-0.269,9.786,-0.108,0.102,0.044
1.967,-0.249,9.786,-0.104,0.1,0.034
1.947,-0.245,9.748,-0.096,0.094,0.031
1.945,-0.256,9.738,-0.091,0.094,0.027
1.95,-0.268,9.723,-0.084,0.087,0.022
1.916,-0.277,9.734,-0.087,0.092,0.024
1.887,-0.277,9.739,-0.086,0.086,0.028
1.9,-0.279,9.708,-0.083,0.08,0.032
1.887,-0.25,9.613,-0.086,0.083,0.033
1.842,-0.247,9.506,-0.089,0.084,0.032
1.856,-0.293,9.632,-0.108,0.093,0.039
1.879,-0.365,9.808,-0.115,0.089,0.043
1.877,-0.325,10,-0.11,0.078,0.043
1.844,-0.243,9.978,-0.102,0.082,0.04
1.847,-0.255,9.863,-0.068,0.081,0.035
1.844,-0.273,9.719,-0.042,0.074,0.025
1.861,-0.298,9.678,-0.039,0.073,0.02
1.858,-0.399,9.65,-0.034,0.081,0.023
1.859,-0.453,9.624,-0.031,0.093,0.029
1.837,-0.451,9.538,-0.035,0.099,0.031
1.827,-0.466,9.371,-0.061,0.111,0.04
1.86,-0.468,9.337,-0.102,0.13,0.056
1.793,-0.403,9.28,-0.16,0.154,0.083
1.68,-0.67,9.22,-0.195,0.189,0.123
1.628,-0.637,9.124,-0.16,0.271,0.162
1.587,-0.117,8.749,-0.206,0.389,0.193
1.774,-0.522,8.998,-0.261,0.507,0.242
1.866,-0.75,9.219,-0.412,0.625,0.271
2.214,0.033,9.954,-0.843,0.724,0.322
2.41,0.392,10.945,-1.076,0.685,0.371
1.908,-1.204,12.277,-0.918,0.579,0.275
1.706,-2.355,13.926,-0.856,0.397,0.12
1.802,-1.046,13.442,-0.741,0.193,0.209
1.624,-0.057,11.382,-0.417,0.1,0.368
1.329,-0.482,9.229,-0.227,0.109,0.291
1.329,-0.883,8.137,-0.206,0.106,0.061
1.441,-0.618,8.119,-0.204,0.035,0.021
1.591,-0.03,9.094,-0.415,0.028,0.034
1.136,-1.153,12.401,-1.076,0.11,-0.085
0.775,-2.996,13.971,-1.653,-0.049,-0.149
1.417,0.501,7.937,-1.488,-0.508,0.165
3.121,3.51,3.549,-0.178,-0.336,0.299
3.603,-0.381,7.734,1.089,-0.367,-0.045
2.668,-0.216,12.091,2.436,-0.095,-0.285
1.567,-0.594,6.854,4.494,0.615,-0.149
-0.888,-9.496,3.99,4.417,1.291,0.034
0.177,-17.366,8.421,0.829,1.703,-0.5
3.884,-9.399,10.197,-2.484,1.871,-0.924
-2.629,11.308,18.614,-3.059,1.706,0.151
-6.912,19.834,19.445,-2.303,0.86,1.795
0.241,8.611,4.742,1.059,0.959,1.138
5.224,-1.689,8.532,2.431,0.057,-0.5
1.979,-1.91,12.363,2.849,-0.439,-0.599
-1.007,-5.693,6.054,2.18,-0.365,-0.11
-0.381,-7.936,6.713,0.469,-0.162,0.144
1.149,-1.614,7.801,-1.218,0.021,0.379
1.696,1.96,7.476,-1.745,0.148,0.523
0.645,-0.34,8.129,-1.135,0.126,0.325
-0.051,-3.016,8.769,-0.481,0.112,0.047
0.213,-3.489,9.901,-0.313,0.091,-0.08
0.893,-1.654,11.648,-0.394,-0.066,-0.062
0.899,0.077,12.456,-0.564,-0.283,-0.097
0.773,0.968,12.041,-0.783,-0.426,-0.057
1.135,0.859,11.203,-1.059,-0.581,0.048
1.17,1.827,10.725,-1.235,-0.751,0.037
1.361,1.32,9.562,-1.08,-0.752,-0.006
2.331,-2.32,8.032,-0.72,-0.66,-0.216
1.785,-4.959,7.795,-0.804,-0.508,-0.645
1.688,-2.578,8.31,-1.193,-0.363,-0.701
1.522,-0.129,9.176,-1.298,-0.164,-0.142
0.397,0.959,9.549,-1.079,-0.076,0.235
0.66,0.014,9.654,-0.961,-0.168,0.245
2.26,-0.737,10.178,-0.693,-0.213,0.219
3.287,-1.091,10.298,-0.454,-0.227,0.198
2.521,-1.145,10.369,-0.422,-0.174,0.105
1.417,-1.102,10.506,-0.493,-0.131,-0.005
1.399,-1.198,10.635,-0.498,-0.107,-0.067
1.854,-1.294,10.847,-0.432,-0.133,-0.117
1.872,-1.109,10.669,-0.299,-0.177,-0.149
1.685,-0.949,10.314,-0.114,-0.184,-0.133
1.542,-0.975,9.69,0.068,-0.159,-0.069
1.519,-1.259,9.203,0.134,-0.105,0.001
1.487,-1.552,8.999,0.118,-0.048,0.045
1.456,-1.886,9.082,0.101,-0.008,0.053
1.488,-2.246,9.391,0.116,-0.01,0.044
1.447,-2.451,9.738,0.118,-0.006,0.026
1.391,-2.331,10.041,0.093,-0.006,0.018
1.377,-2.008,10.227,0.077,-0.007,0.028
1.349,-1.783,10.233,0.068,-0.004,0.047
1.338,-1.599,10.141,0.069,0.015,0.05
1.324,-1.561,10.025,0.086,0.033,0.047
1.346,-1.605,9.817,0.099,0.041,0.031
1.283,-1.549,9.419,0.102,0.056,0.011
1.321,-1.651,9.387,0.038,0.101,0.004
1.386,-1.843,9.698,-0.031,0.116,-0.01
1.373,-1.82,9.949,-0.049,0.097,-0.041
1.358,-1.656,10.166,-0.05,0.082,-0.056
1.378,-1.465,10.217,-0.037,0.075,-0.051
1.412,-1.364,10.064,-0.014,0.079,-0.035
1.419,-1.315,9.918,0.007,0.096,-0.021
1.456,-1.224,9.775,0.049,0.106,-0.007
1.481,-1.308,9.711,0.079,0.117,0.006

1.682,-0.889,9.767,-0.069,0.077,0.021
1.693,-0.89,9.809,-0.072,0.077,0.023
1.708,-0.877,9.862,-0.073,0.073,0.027
1.682,-0.856,9.868,-0.074,0.067,0.027
1.688,-0.833,9.83,-0.069,0.07,0.027
1.668,-0.824,9.817,-0.061,0.069,0.031
1.686,-0.863,9.827,-0.053,0.063,0.03
1.681,-0.87,9.843,-0.049,0.057,0.028
1.69,-0.882,9.867,-0.051,0.061,0.029
1.676,-0.89,9.803,-0.056,0.064,0.031
1.699,-0.918,9.796,-0.055,0.061,0.031
1.699,-0.95,9.784,-0.057,0.068,0.032
1.675,-0.95,9.768,-0.064,0.078,0.031
1.68,-0.943,9.805,-0.064,0.078,0.032
1.696,-0.933,9.788,-0.055,0.072,0.035
1.693,-0.936,9.769,-0.054,0.077,0.038
1.687,-0.929,9.781,-0.059,0.082,0.037
1.672,-0.901,9.856,-0.058,0.077,0.036
1.642,-0.916,9.861,-0.058,0.075,0.033
1.653,-0.92,9.868,-0.059,0.075,0.028
1.677,-0.911,9.835,-0.055,0.072,0.027
1.676,-0.887,9.811,-0.052,0.071,0.031
1.678,-0.887,9.783,-0.053,0.07,0.033
1.67,-0.935,9.769,-0.069,0.078,0.037
1.596,-0.951,9.608,-0.09,0.083,0.039
1.627,-0.962,9.617,-0.132,0.095,0.047
1.569,-1.103,9.341,-0.18,0.118,0.061
1.457,-1.38,8.94,-0.206,0.132,0.079
0.995,-1.661,8.523,-0.213,0.22,0.131
1.496,-0.497,8.75,-0.233,0.411,0.266
1.936,0.337,8.948,-0.218,0.589,0.485
2.04,0.095,9.641,-0.213,0.685,0.577
2.114,-0.283,10.656,-0.294,0.656,0.431
2.074,-1.471,11.606,-0.339,0.53,0.24
1.942,-2.873,12.33,-0.444,0.394,0.088
1.904,-1.726,13.074,-0.608,0.284,0.099
1.795,-0.401,12.329,-0.428,0.171,0.356
1.657,0.121,10.764,-0.159,0.106,0.397
1.546,-0.527,9.479,0.085,0.053,0.197
1.276,-1.885,8.79,0.285,-0.016,0.008
1.232,-1.764,9.073,0.228,-0.074,-0.067
1.281,-1.151,9.311,-0.083,-0.085,-0.06
1.005,-2.04,12.222,-0.874,0.001,-0.21
0.299,-4.39,14.882,-1.708,-0.187,-0.289
1.258,-0.479,8.702,-1.648,-0.641,0.153
2.839,4.884,3.389,-0.823,-0.428,0.374
3.439,1.546,7.842,0.508,-0.492,0.109
2.892,0.086,12.211,2.559,-0.298,-0.204
1.777,-0.102,6.478,4.6,0.361,-0.388
-0.535,-6.045,3.222,4.557,0.957,-0.197
0.74,-13.297,9.056,1.817,1.459,-0.359
3.286,-10.296,11.816,-0.679,1.709,-0.701
-2.263,3.165,14.612,-1.499,1.651,-0.153
-5.112,17.745,19.43,-2.334,0.669,1.069
0.024,10.892,5.255,-0.229,0.683,1.281
4.458,0.919,7.141,2.009,0.174,0.033
2.365,-0.9,12.586,2.889,-0.371,-0.389
-0.242,-4.061,7.103,2.475,-0.467,-0.195
-0.029,-8.697,5.125,1.118,-0.247,0.002
1.11,-4.857,7.545,-0.573,-0.065,0.195
1.527,0.221,7.464,-1.551,0.084,0.395
0.855,-0.797,7.913,-1.473,0.083,0.241
0.2,-2.018,8.672,-0.861,0.043,-0.008
0.377,-1.821,10.857,-0.534,0.008,-0.13
0.844,-0.016,12.522,-0.394,-0.143,-0.167
0.55,1.287,13.242,-0.339,-0.342,-0.25
0.709,2.565,12.03,-0.445,-0.473,-0.125
1.568,2.064,11.2,-0.713,-0.623,0.13
2.141,3.028,11.065,-0.883,-0.826,0.046
1.75,1.336,9.58,-0.853,-0.896,-0.007
2.212,-2.957,8.096,-0.342,-0.646,-0.252
2.117,-4.951,6.923,-0.337,-0.373,-0.612
1.866,-2.389,7.284,-0.811,-0.099,-0.553
0.919,0.599,8.274,-0.889,0.055,-0.023
-0.136,0.577,8.633,-0.744,0.004,0.268
1.608,-0.446,9.198,-0.551,-0.155,0.182
3.405,-0.93,9.875,-0.164,-0.135,0.077
2.607,-1.23,10.649,-0.153,-0.043,0.042
1.369,-0.798,11.028,-0.407,0.028,0.025
1.416,-0.057,11.186,-0.616,0.042,0.04
1.888,0.371,11.274,-0.618,0.036,0.079
2.07,0.47,10.812,-0.451,0.009,0.089
1.965,0.62,10.012,-0.201,-0.005,0.081
1.9,0.363,9.345,-0.004,0.034,0.097
1.853,-0.317,9.28,0.088,0.084,0.105
1.899,-0.9,9.672,0.089,0.083,0.079
1.833,-1.31,10.022,0.125,0.038,0.033
1.666,-1.55,10.28,0.175,0.009,-0.008
1.601,-1.708,10.57,0.172,-0.022,-0.026
1.624,-1.55,10.566,0.152,-0.054,-0.028
1.541,-1.235,10.186,0.149,-0.05,-0.001
1.449,-1.061,9.86,0.144,-0.009,0.045
1.441,-1.07,9.633,0.124,0.023,0.087
1.429,-1.026,9.325,0.078,0.065,0.112
1.495,-1.001,9.434,-0.02,0.101,0.126
1.555,-1.047,9.738,-0.081,0.103,0.116
1.574,-1.11,10.149,-0.113,0.09,0.077
1.605,-1.089,10.396,-0.131,0.071,0.026
1.584,-0.895,10.399,-0.1,0.06,-0.024
1.589,-0.849,10.31,-0.063,0.059,-0.051
1.608,-0.834,10.171,-0.012,0.055,-0.051
1.569,-0.818,9.986,0.035,0.054,-0.034
1.532,-0.691,9.678,0.082,0.053,-0.008
1.554,-0.588,9.605,0.092,0.071,0.016

1.769,-0.481,9.834,-0.087,0.089,0.026
1.739,-0.464,9.821,-0.087,0.093,0.037
1.736,-0.435,9.826,-0.088,0.096,0.044
1.74,-0.433,9.81,-0.082,0.09,0.045
1.768,-0.433,9.844,-0.09,0.097,0.045
1.779,-0.436,9.879,-0.095,0.096,0.044
1.755,-0.419,9.815,-0.09,0.093,0.041
1.774,-0.421,9.797,-0.087,0.093,0.038
1.769,-0.452,9.736,-0.079,0.09,0.035
1.754,-0.47,9.735,-0.078,0.093,0.034
1.757,-0.466,9.741,-0.074,0.092,0.032
1.745,-0.468,9.73,-0.078,0.097,0.034
1.754,-0.439,9.799,-0.077,0.095,0.033
1.746,-0.394,9.8,-0.083,0.096,0.034
1.71,-0.409,9.807,-0.095,0.102,0.04
1.723,-0.409,9.81,-0.102,0.102,0.043
1.681,-0.425,9.728,-0.104,0.095,0.047
1.754,-0.465,9.816,-0.123,0.107,0.052
1.723,-0.394,9.872,-0.136,0.106,0.06
1.768,-0.352,9.984,-0.12,0.103,0.069
1.741,-0.386,9.795,-0.106,0.091,0.078
1.708,-0.402,9.555,-0.132,0.102,0.073
1.633,-0.454,9.088,-0.179,0.13,0.071
1.57,-0.806,8.634,-0.248,0.182,0.106
1.17,-0.848,8.409,-0.318,0.306,0.157
1.254,0.004,8.221,-0.463,0.508,0.255
1.75,-0.385,9.247,-0.735,0.726,0.435
2.301,-0.023,11.045,-0.892,0.781,0.49
2.923,0.073,12.663,-0.78,0.689,0.459
2.347,-1.483,13.088,-0.469,0.527,0.33
1.688,-2.393,12.713,-0.41,0.369,0.171
1.101,-1.427,11.254,-0.446,0.241,0.144
1.138,-0.23,9.571,-0.34,0.229,0.298
1.438,0.674,8.684,-0.077,0.231,0.26
1.522,-0.29,8.581,0.184,0.141,0.078
1.302,-1.35,9.151,0.074,0.064,-0.066
1.266,-1.124,11.09,-0.547,0.137,-0.135
0.718,-2.784,15.014,-1.346,0.09,-0.214
0.902,-2.144,13.446,-1.851,-0.293,-0.045
1.05,1.816,4.321,-1.58,-0.648,0.23
3.021,2.795,3.603,0.101,-0.277,0.006
3.826,1.777,8.927,1.694,-0.583,-0.284
2.848,2.7,9.73,3.607,0.058,-0.073
-1.19,-0.722,2.232,4.866,0.869,0.114
-0.332,-10.466,5.28,3.891,1.552,0.049
4.183,-18.903,16.946,-0.219,1.605,-0.608
3.844,-3.101,13.46,-1.822,1.616,-0.948
-6.905,13.12,19.416,-3.259,1.165,0.599
-6.113,20.053,13.833,-2.361,0.642,1.986
4.317,5.645,3.685,0.835,0.513,0.879
5.63,-0.4,11.943,3.001,-0.411,-0.472
-0.009,-3.82,11.164,3.125,-0.792,-0.554
-1.627,-9.111,5.39,2.05,-0.629,-0.29
0.563,-6.782,6.888,0.233,-0.33,0.169
1.924,-0.338,7.082,-1.129,-0.13,0.534
1.217,0.294,7.059,-1.307,-0.081,0.382
0.072,-2.562,7.95,-0.726,-0.085,0.035
0.048,-2.943,9.172,-0.294,-0.035,-0.179
0.71,-0.91,10.8,-0.257,-0.074,-0.178
1.021,1.338,12.152,-0.376,-0.231,-0.192
0.872,2.162,12.895,-0.649,-0.401,-0.163
1.008,2.226,11.341,-0.839,-0.65,-0.073
1.104,3.271,11.675,-1.104,-0.853,0.014
1.119,1.983,10.29,-1.148,-0.912,0.046
2.492,-2.642,7.559,-0.357,-0.672,-0.264
2.292,-4.262,5.777,-0.328,-0.352,-0.759
1.801,-1.99,6.4,-0.813,0.025,-0.71
0.754,1.224,8.251,-0.925,0.151,-0.135
1.072,1.498,8.9,-0.789,-0.042,0.27
2.706,0.575,9.485,-0.473,-0.133,0.292
3.149,-0.343,10.348,-0.272,-0.073,0.214
2.247,-0.658,10.707,-0.39,0.044,0.106
1.451,-0.371,11.324,-0.529,0.129,0.07
1.547,-0.004,11.337,-0.504,0.124,0.071
2.095,0.423,11.257,-0.402,0.083,0.056
2.208,0.692,11.005,-0.199,0.02,0.045
2.115,0.707,10.403,0.061,-0.041,0.037
2.082,0.369,9.676,0.189,-0.059,0.022
1.961,-0.172,9.275,0.161,-0.02,0.018
1.923,-0.726,9.367,0.078,0.02,0.02
1.852,-1.224,9.573,0.033,0.027,0.002
1.776,-1.685,9.868,0.019,0.017,-0.018
1.717,-1.698,10.331,-0.028,0.002,-0.025
1.675,-1.408,10.614,-0.051,-0.025,-0.008
1.565,-1.076,10.473,-0.034,-0.043,0.016
1.492,-0.705,10.179,-0.011,-0.021,0.047
1.599,-0.357,9.911,0.008,0.009,0.094
1.573,-0.171,9.407,0.071,0.051,0.145
1.545,-0.425,9.252,0.093,0.103,0.174
1.6,-0.801,9.497,0.033,0.128,0.144
1.625,-1.003,9.88,-0.078,0.144,0.082
1.648,-1.052,10.269,-0.142,0.13,0.017
1.618,-0.923,10.506,-0.148,0.106,-0.036
1.609,-0.835,10.38,-0.124,0.086,-0.066
1.65,-0.673,10.208,-0.11,0.085,-0.075
1.707,-0.507,10.018,-0.091,0.085,-0.055
1.718,-0.394,9.917,-0.045,0.076,-0.014
1.681,-0.322,9.795,0.013,0.072,0.032
1.682,-0.369,9.741,0.062,0.068,0.061
1.701,-0.478,9.784,0.047,0.069,0.059
1.74,-0.514,9.83,-0.002,0.066,0.038
1.689,-0.521,9.794,-0.064,0.071,0.017
1.655,-0.46,9.697,-0.105,0.087,-0.005
1.72,-0.357,9.787,-0.13,0.111,-0.02

1.805,-0.366,9.838,-0.095,0.092,0.032
1.792,-0.379,9.841,-0.095,0.094,0.036
1.773,-0.386,9.803,-0.094,0.095,0.038
1.773,-0.37,9.785,-0.097,0.1,0.04
1.771,-0.357,9.783,-0.104,0.105,0.043
1.76,-0.374,9.779,-0.107,0.107,0.045
1.759,-0.381,9.785,-0.106,0.107,0.043
1.782,-0.361,9.849,-0.111,0.114,0.044
1.772,-0.35,9.861,-0.106,0.11,0.044
1.777,-0.352,9.844,-0.1,0.107,0.043
1.784,-0.353,9.789,-0.097,0.107,0.039
1.808,-0.365,9.792,-0.094,0.106,0.037
1.802,-0.384,9.787,-0.091,0.098,0.034
1.801,-0.373,9.775,-0.092,0.099,0.03
1.8,-0.36,9.752,-0.088,0.097,0.028
1.808,-0.354,9.778,-0.087,0.098,0.032
1.815,-0.351,9.771,-0.091,0.099,0.033
1.797,-0.346,9.769,-0.095,0.102,0.03
1.791,-0.329,9.72,-0.095,0.1,0.031
1.75,-0.3,9.558,-0.109,0.112,0.038
1.746,-0.322,9.505,-0.146,0.132,0.045
1.764,-0.432,9.599,-0.18,0.13,0.062
1.74,-0.589,9.299,-0.229,0.138,0.087
1.671,-0.777,8.762,-0.273,0.183,0.129
1.458,-0.34,8.317,-0.288,0.347,0.19
1.237,-0.156,8.168,-0.45,0.539,0.232
1.226,-0.298,8.629,-0.558,0.715,0.261
1.998,-0.18,10.173,-0.602,0.762,0.391
2.64,0.33,11.928,-0.804,0.688,0.544
2.789,-0.094,12.031,-0.706,0.517,0.579
2.221,-1.462,11.655,-0.539,0.405,0.354
2.013,-1.14,11.714,-0.569,0.358,0.175
1.82,-0.625,12.054,-0.438,0.24,0.252
1.474,-0.603,11.573,-0.102,0.09,0.286
1.37,-0.474,10.854,0.06,0.004,0.179
1.448,-0.804,9.387,0.181,-0.055,0.065
1.287,-1.266,8.91,0.142,-0.079,-0.034
1.28,-1.056,9.911,-0.259,-0.061,-0.082
1.024,-1.69,12.972,-0.931,-0.075,-0.219
0.635,-2.568,12.54,-1.535,-0.21,-0.233
1.008,-1.24,9.411,-1.85,-0.383,0.014
1.837,1.748,3.517,-1.14,-0.42,0.192
4.401,3.726,5.986,0.582,-0.247,0.072
3.936,2.529,10.175,2.194,-0.449,-0.083
1.733,2.596,7.216,4.451,0.37,-0.091
-1.251,-3.356,6.159,4.825,1.072,-0.018
1.065,-15.322,10.053,2.724,1.408,-0.386
3.361,-15.041,12.221,-1.002,1.418,-0.988
0.411,2.205,10.976,-2.555,1.634,-0.544
-6.282,15.982,19.426,-3.344,0.938,1.2
-2.868,17.709,8.887,-1.242,0.787,1.857
4.964,2.604,5.874,1.41,0.366,0.269
4.12,-1.949,11.078,2.674,-0.39,-0.798
0.217,-3.06,9.346,2.5,-0.549,-0.574
-0.653,-6.709,6.154,1.589,-0.319,0.035
0.92,-4.216,7.408,-0.009,-0.096,0.41
2.13,1.018,7.364,-1.041,0.016,0.491
1.425,0.565,7.948,-1.026,-0.009,0.329
0.452,-2.316,8.48,-0.409,-0.036,0.09
0.284,-3.041,9.543,-0.003,-0.025,-0.045
0.938,-1.891,10.546,0.058,-0.123,-0.075
1.194,-0.292,11.387,-0.05,-0.278,-0.145
0.926,0.987,12.049,-0.403,-0.385,-0.127
0.984,1.657,11.051,-0.84,-0.583,0.037
1.299,2.919,11.994,-1.226,-0.781,0.094
1.812,1.537,10.575,-1.268,-0.834,-0.037
2.986,-0.887,8.403,-0.583,-0.584,-0.293
2.704,-2.997,7.442,-0.589,-0.287,-0.593
2.055,-1.195,7.433,-0.849,0.018,-0.548
0.205,1.143,8.127,-0.712,0.114,-0.079
1.359,0.659,8.863,-0.567,-0.088,0.191
3.27,0.056,9.514,-0.138,-0.156,0.147
2.805,-0.653,10.568,0.009,-0.039,0.019
1.66,-0.737,11.3,-0.148,0.097,-0.06
1.435,-0.325,11.401,-0.261,0.147,-0.03
1.886,0.436,11.165,-0.279,0.115,0.002
2.004,0.868,11.115,-0.262,0.057,0.048
2.053,1.153,10.562,-0.124,-0.015,0.064
2.061,1.143,9.741,0.024,-0.026,0.059
2.039,0.764,9.451,0.049,0,0.049
2.06,0.142,9.667,0.01,0.018,0.047
2.01,-0.548,9.823,-0.004,0.003,0.005
1.804,-0.879,9.878,-0.03,0.001,-0.052
1.691,-0.994,10.012,-0.041,0.007,-0.063
1.691,-1.051,10.179,-0.02,-0.004,-0.046
1.625,-0.921,10.153,-0.002,-0.004,-0.028
1.581,-0.587,10.086,0.006,0.009,0.007
1.588,-0.257,9.954,0.012,0.028,0.07
1.597,-0.21,9.756,0.034,0.044,0.132
1.578,-0.368,9.747,0.012,0.067,0.163
1.556,-0.634,9.82,-0.084,0.081,0.155
1.54,-0.694,9.85,-0.181,0.092,0.117
1.573,-0.558,9.794,-0.222,0.106,0.072
1.662,-0.374,9.825,-0.231,0.122,0.039
1.721,-0.278,9.917,-0.197,0.133,0.014
1.722,-0.31,10.075,-0.132,0.115,-0.005
1.728,-0.398,10.058,-0.068,0.099,-0.019
1.722,-0.485,9.947,-0.031,0.091,-0.033
1.69,-0.439,9.765,-0.01,0.101,-0.033
1.753,-0.371,9.773,0.01,0.101,-0.012
1.725,-0.262,9.612,0.024,0.096,0.014
1.719,-0.301,9.526,0,0.102,0.025
1.74,-0.291,9.551,-0.077,0.122,0.015
1.764,-0.147,9.703,-0.138,0.131,0.011

1.898,-0.075,9.821,-0.113,0.115,0.041
1.903,-0.072,9.849,-0.115,0.119,0.041
1.914,-0.091,9.822,-0.115,0.12,0.039
1.902,-0.066,9.838,-0.118,0.121,0.045
1.908,-0.055,9.828,-0.113,0.114,0.05
1.905,-0.047,9.821,-0.109,0.114,0.048
1.91,-0.057,9.826,-0.105,0.111,0.047
1.91,-0.075,9.845,-0.108,0.106,0.047
1.89,-0.098,9.857,-0.115,0.107,0.043
1.906,-0.13,9.842,-0.12,0.113,0.039
1.914,-0.12,9.798,-0.111,0.105,0.042
1.917,-0.106,9.757,-0.112,0.11,0.045
1.92,-0.123,9.77,-0.111,0.114,0.049
1.912,-0.129,9.8,-0.111,0.109,0.05
1.926,-0.123,9.795,-0.106,0.104,0.049
1.919,-0.098,9.744,-0.109,0.108,0.041
1.913,-0.064,9.682,-0.111,0.113,0.037
1.906,-0.091,9.701,-0.109,0.114,0.037
1.893,-0.086,9.724,-0.113,0.121,0.037
1.891,-0.084,9.722,-0.112,0.125,0.04
1.829,-0.098,9.561,-0.123,0.126,0.047
1.811,-0.129,9.429,-0.177,0.14,0.063
1.881,-0.194,9.289,-0.245,0.162,0.08
1.868,-0.429,9.179,-0.317,0.165,0.107
1.566,-0.637,8.736,-0.27,0.245,0.145
1.201,0.219,7.863,-0.28,0.442,0.183
1.467,0.932,7.914,-0.58,0.626,0.268
1.678,0.502,9.176,-0.63,0.784,0.384
2.474,-0.296,11.101,-0.725,0.81,0.461
2.815,0.368,11.738,-0.837,0.712,0.433
2.872,-0.404,11.507,-0.648,0.55,0.317
2.23,-1.288,11.872,-0.496,0.453,0.151
2.023,-1.069,12.5,-0.536,0.338,0.184
1.669,-0.409,12.113,-0.423,0.177,0.287
1.53,0.154,11.135,-0.264,0.051,0.319
1.752,-0.141,9.864,-0.019,-0.022,0.234
1.574,-0.449,8.946,0.103,-0.047,0.115
1.358,-1.145,8.762,-0.073,-0.062,0.025
1.42,-0.089,9.278,-0.559,-0.017,-0.051
0.703,-1.671,12.659,-1.306,0.085,-0.118
0.869,-2.822,12.906,-1.891,-0.136,-0.101
1.66,2.54,5.931,-1.502,-0.44,0.309
4.038,4.772,7.502,-0.021,-0.211,0.457
3.342,0.382,10.774,1.611,-0.681,0.127
2.265,0.308,12.306,3.454,-0.218,-0.167
0.893,1.401,5.777,4.83,0.488,-0.138
0.964,-6.744,5.874,4.213,1.192,-0.021
2.322,-13.9,7.153,1.289,1.457,-0.523
2.63,-7.097,9.895,-0.996,1.648,-0.708
-4.926,8.019,19.387,-2.194,1.16,0.312
-4.864,17.415,14.908,-1.993,0.372,1.363
3.137,6.208,6.051,-0.051,0.428,0.756
4.697,1.178,10.796,1.452,-0.156,-0.255
1.682,0.036,8.633,2.166,-0.362,-0.279
0.132,-5.653,5.545,1.941,-0.346,-0.02
0.593,-6.654,6.189,0.596,-0.188,0.088
1.433,-2.339,6.939,-0.875,0.018,0.238
1.485,-0.353,8.022,-1.399,0.123,0.365
0.841,-1.171,8.67,-1.084,0.136,0.269
0.618,-1.257,9.82,-0.653,0.102,0.035
1.129,0.258,11.611,-0.375,-0.037,-0.093
1.105,0.713,12.426,-0.339,-0.216,-0.114
0.928,1.588,12.626,-0.436,-0.332,-0.055
1.376,2.747,11.783,-0.611,-0.54,0.094
2.088,2.14,10.723,-0.951,-0.798,0.095
2.179,1.315,9.68,-0.876,-0.921,-0.164
2.556,-2.426,7.896,-0.755,-0.68,-0.411
2.047,-2.005,6.527,-0.995,-0.309,-0.564
1.815,-0.492,6.248,-0.846,0.131,-0.216
0.213,-0.319,7.411,-0.591,0.198,0.046
2.141,-0.402,7.895,-0.286,-0.076,0.014
3.308,-0.952,8.674,0.011,-0.052,-0.038
2.337,-0.698,10.049,-0.096,0.117,-0.076
1.494,0.11,11.223,-0.376,0.211,-0.05
1.706,0.664,12.124,-0.524,0.192,-0.021
1.898,0.927,12.556,-0.528,0.129,-0.004
2.058,1.293,12.203,-0.476,0.057,0.044
2.33,1.644,11.543,-0.423,0.009,0.109
2.403,1.909,10.535,-0.278,-0.029,0.143
2.406,1.694,9.615,-0.11,-0.049,0.144
2.336,1.001,9.267,-0.022,-0.055,0.102
2.218,0.183,9.211,0.042,-0.041,0.012
1.988,-0.771,9.094,0.112,-0.028,-0.094
1.802,-1.406,9.224,0.142,0.019,-0.167
1.721,-1.355,9.655,0.136,0.044,-0.171
1.62,-1.012,10.097,0.123,0.019,-0.096
1.528,-0.74,10.467,0.128,-0.008,-0.007
1.557,-0.583,10.506,0.125,-0.025,0.058
1.548,-0.419,10.193,0.078,-0.012,0.1
1.545,-0.268,9.707,0,0.033,0.15
1.577,-0.154,9.44,-0.078,0.083,0.194
1.632,-0.235,9.446,-0.146,0.119,0.184
1.711,-0.486,9.593,-0.189,0.145,0.135
1.731,-0.554,9.81,-0.209,0.15,0.058
1.678,-0.446,9.855,-0.185,0.154,-0.025
1.732,-0.262,9.833,-0.13,0.163,-0.075
1.771,-0.165,9.873,-0.075,0.16,-0.082
1.816,-0.13,9.935,-0.033,0.16,-0.07
1.877,-0.021,9.886,0.002,0.153,-0.042
1.865,-0.057,9.705,0.016,0.147,-0.003
1.854,-0.15,9.612,-0.025,0.16,0.027
1.907,-0.176,9.775,-0.075,0.163,0.038
1.934,-0.13,9.966,-0.102,0.137,0.033
1.916,-0.129,9.907,-0.115,0.117,0.012

1.969,0.103,9.765,-0.111,0.125,0.051
1.955,0.106,9.743,-0.116,0.127,0.053
1.979,0.109,9.726,-0.112,0.123,0.052
1.976,0.129,9.724,-0.111,0.12,0.051
1.985,0.132,9.698,-0.109,0.124,0.045
2.015,0.106,9.702,-0.104,0.121,0.037
1.971,0.089,9.681,-0.113,0.123,0.034
1.925,0.046,9.601,-0.135,0.13,0.039
1.938,-0.077,9.641,-0.158,0.131,0.049
1.961,-0.068,9.606,-0.17,0.136,0.05
1.912,-0.086,9.852,-0.2,0.131,0.059
1.834,-0.011,9.561,-0.209,0.136,0.075
1.832,0.151,9.564,-0.249,0.18,0.098
1.903,0.096,9.422,-0.309,0.198,0.117
2.009,0.428,9.108,-0.366,0.202,0.151
2.054,0.46,8.878,-0.369,0.236,0.201
1.779,0.335,8.878,-0.375,0.351,0.187
1.694,0.24,9.162,-0.439,0.477,0.121
1.663,0.338,9.269,-0.352,0.549,0.131
1.769,0.025,9.642,-0.256,0.571,0.225
2.099,-0.895,10.055,-0.384,0.609,0.289
2.403,-0.651,10.239,-0.617,0.683,0.305
2.522,-0.731,10.723,-0.775,0.719,0.273
2.399,-1.396,11.865,-0.792,0.652,0.147
1.965,-0.896,12.062,-0.759,0.493,0.081
1.572,-0.227,11.702,-0.726,0.308,0.154
1.502,0.339,11.155,-0.693,0.233,0.22
1.781,0.791,10.416,-0.55,0.198,0.15
1.617,-0.007,9.744,-0.245,0.133,0.041
1.607,-0.598,9.503,-0.104,0.075,-0.041
1.608,-0.158,9.457,-0.263,0.081,-0.045
1.335,-0.398,11.932,-0.832,0.168,-0.184
0.475,-2.817,14.186,-1.535,0.093,-0.363
1.075,-1.19,11.155,-1.682,-0.222,-0.092
1.786,1.596,3.222,-0.994,-0.433,0.228
5.196,2.934,7.555,0.828,-0.404,0.1
4.683,2.491,12.717,2.229,-0.871,-0.048
1.985,2.241,6.005,4.478,0.158,-0.062
-0.979,-2.829,2.036,4.89,1.109,-0.067
1.706,-8.018,4.616,3.611,1.583,-0.242
3.701,-10.447,11.123,0.189,1.625,-0.393
-2.232,-7.985,19.308,-3.056,1.571,-0.234
-5.869,15.655,19.423,-3.34,0.753,0.345
0.047,15.604,7.603,-2.111,0.723,1.333
5.096,5.564,9.658,0.716,0.179,0.371
2.464,0.758,9.612,2.18,-0.216,-0.463
0.381,-3.858,6.836,2.452,-0.229,-0.343
0.738,-7.165,6.546,1.303,-0.09,0.048
1.445,-3.973,7.103,-0.338,0.027,0.257
1.572,-0.401,7.17,-1.183,0.098,0.321
1.024,-0.555,7.707,-1.068,0.134,0.278
0.56,-2.076,9.603,-0.535,0.132,0.158
0.581,-1.273,10.957,-0.032,0.018,-0.086
1.026,0.237,12.136,0.082,-0.151,-0.19
0.781,2.123,12.45,-0.101,-0.307,-0.155
0.683,3.007,11.789,-0.504,-0.467,0.016
1.211,2.711,11.489,-0.762,-0.685,0.143
2.111,3.628,11.867,-0.93,-0.852,0.121
2.544,0.297,10.166,-0.777,-0.851,0.041
2.606,-1.348,7.045,-0.21,-0.536,-0.365
2.36,-2.012,6.276,0.069,-0.21,-0.548
0.465,-2.453,7.444,-0.362,-0.134,-0.483
1.02,0.222,8.097,-0.615,-0.257,-0.228
2.919,1.897,8.71,-0.482,-0.219,0.145
3.084,0.871,9.853,-0.271,-0.074,0.265
1.965,-0.066,10.874,-0.24,0.045,0.141
1.369,0.201,11.543,-0.443,0.121,0.079
1.911,0.759,11.763,-0.683,0.144,0.154
2.221,1.26,11.401,-0.674,0.102,0.276
2.197,1.652,10.71,-0.547,0.021,0.239
2.236,1.707,10.292,-0.362,-0.035,0.152
2.216,1.391,9.986,-0.114,-0.052,0.061
2.221,0.675,9.754,0.094,-0.084,-0.007
2.116,-0.073,9.595,0.186,-0.121,-0.037
1.918,-0.627,9.61,0.17,-0.119,-0.022
1.742,-0.853,9.569,0.095,-0.091,0.002
1.68,-1.157,9.633,0.016,-0.05,0.024
1.69,-1.086,9.794,-0.025,-0.037,0.03
1.619,-0.662,9.891,-0.07,-0.036,0.058
1.596,-0.325,9.745,-0.069,-0.019,0.108
1.674,-0.079,9.717,-0.052,0.019,0.142
1.66,0.02,9.577,-0.045,0.049,0.136
1.755,-0.01,9.551,-0.065,0.062,0.162
1.715,-0.024,9.293,-0.09,0.087,0.144
1.679,-0.104,9.415,-0.151,0.122,0.099
1.735,-0.275,9.629,-0.191,0.163,0.053
1.82,-0.203,9.867,-0.172,0.168,0.007
1.841,-0.166,9.985,-0.112,0.14,-0.027
1.818,0.011,9.901,-0.078,0.118,-0.037
1.867,0.17,9.869,-0.075,0.114,-0.021
1.903,0.277,9.84,-0.063,0.123,0.002
1.91,0.23,9.948,-0.038,0.112,0.029
1.914,0.108,9.752,-0.02,0.102,0.037
1.899,0.038,9.503,-0.041,0.115,0.026
1.901,0.102,9.417,-0.086,0.135,0.016
1.954,0.068,9.605,-0.113,0.145,0.015
2.019,0.105,9.898,-0.125,0.14,0.015
2.012,0.173,10.073,-0.114,0.126,-0.007
2,0.206,10.041,-0.105,0.107,-0.035
2.01,0.343,9.877,-0.104,0.104,-0.037
2.074,0.405,9.689,-0.098,0.111,-0.012
2.091,0.324,9.624,-0.079,0.11,0.016
2.065,0.232,9.681,-0.063,0.11,0.029
2.074,0.158,9.63,-0.055,0.109,0.035

2.069,0.273,9.658,-0.13,0.14,0.049
2.071,0.269,9.673,-0.134,0.146,0.055
2.091,0.266,9.71,-0.133,0.145,0.064
2.084,0.255,9.745,-0.13,0.139,0.065
2.054,0.262,9.72,-0.13,0.14,0.063
2.08,0.226,9.685,-0.136,0.149,0.058
2.094,0.19,9.677,-0.133,0.146,0.053
2.069,0.2,9.608,-0.144,0.149,0.054
2.077,0.194,9.593,-0.152,0.149,0.053
2.076,0.193,9.649,-0.173,0.152,0.062
2.124,0.199,9.72,-0.168,0.146,0.073
2.075,0.242,9.543,-0.171,0.147,0.075
2.144,0.217,9.658,-0.195,0.166,0.074
2.237,0.175,9.946,-0.219,0.158,0.089
2.098,0.323,9.852,-0.21,0.146,0.128
2.132,0.457,9.648,-0.166,0.163,0.142
2.077,0.367,9.119,-0.181,0.201,0.1
2.041,0.201,8.945,-0.276,0.244,0.062
1.934,0.092,8.518,-0.317,0.289,0.067
1.969,0.132,8.519,-0.335,0.377,0.128
2.054,0.041,9.139,-0.368,0.418,0.2
1.945,-0.341,10.257,-0.414,0.418,0.212
2.198,-0.324,10.805,-0.451,0.399,0.203
2.189,-0.048,10.595,-0.465,0.397,0.229
2.281,-0.021,9.722,-0.539,0.441,0.244
2.261,-0.127,9.258,-0.667,0.557,0.242
2.35,0.172,10.59,-0.848,0.636,0.265
2.267,0.352,12.245,-0.77,0.532,0.301
1.779,-0.024,12.418,-0.427,0.296,0.264
1.816,-0.23,11.393,-0.156,0.152,0.114
1.856,-0.196,9.921,-0.083,0.102,0.021
1.656,-0.681,9.484,-0.319,0.133,-0.067
1.481,-0.971,10.346,-0.835,0.159,-0.147
1.157,-1.147,12.877,-1.473,0.136,-0.157
1.293,-1.764,12.771,-2.101,-0.109,-0.023
1.4,0.574,7.81,-1.996,-0.355,0.219
4.159,4.683,5.804,-0.524,-0.208,0.245
5.195,3.316,12.143,1.299,-0.736,0.176
3.225,6.035,7.89,3.971,-0.259,0.069
0.015,3.81,2.293,4.907,0.666,0.109
0.518,-8.77,6.654,4.334,1.379,-0.018
3.818,-19.14,13.778,1.037,1.305,-0.812
3.844,-5.48,10.864,-0.963,1.311,-1.177
-7.245,6.621,19.317,-2.433,1.065,0.438
-7.507,15.293,15.277,-3.131,0.542,1.571
5.018,9.751,7.555,-1.248,0.631,0.899
6.511,6.504,9.87,0.677,-0.134,-0.053
1.734,1.969,8.351,2.289,-0.392,-0.276
-0.121,-5.529,6.246,2.587,-0.39,-0.101
0.634,-7.608,6.002,1.256,-0.273,0.125
1.804,-3.847,6.502,-0.531,-0.087,0.322
1.583,-0.657,7.142,-1.321,0.057,0.517
1.009,-1.052,8.243,-1.149,0.139,0.473
1.102,-1.317,9.779,-0.604,0.096,0.199
1.387,-0.391,11.453,-0.193,-0.067,-0.12
1.261,0.294,12.013,-0.139,-0.21,-0.206
1.385,1.888,12.745,-0.486,-0.311,-0.039
1.983,3.361,11.672,-0.915,-0.555,0.155
2.829,3.45,10.044,-1.08,-0.743,0.159
2.541,1.392,9.971,-0.837,-0.806,-0.081
2.406,-2.681,8.356,-0.622,-0.643,-0.464
2.5,-1.348,5.76,-0.561,-0.232,-0.56
1.776,-0.463,5.721,-0.233,0.266,-0.258
-0.71,-0.479,7.753,-0.029,0.209,-0.116
2.342,-0.145,8.26,0.01,-0.206,-0.123
4.021,-0.441,9.387,0.274,-0.092,-0.055
2.524,-0.763,10.818,-0.024,0.098,-0.101
1.426,0.009,11.65,-0.522,0.181,-0.136
1.852,1.013,11.872,-0.832,0.172,-0.049
2.176,1.836,11.62,-0.934,0.153,0.069
2.385,1.983,11.263,-0.894,0.132,0.145
2.444,2.196,10.647,-0.662,0.079,0.189
2.472,2.026,10.137,-0.389,0.032,0.166
2.461,1.594,9.788,-0.179,0.006,0.112
2.383,1.127,9.403,-0.05,0.023,0.048
2.453,0.599,9.53,0.007,0.047,0.003
2.4,-0.068,9.73,0.049,0.029,-0.022
2.206,-0.631,9.872,0.094,0.015,-0.052
1.948,-0.731,9.958,0.099,0.019,-0.077
1.87,-0.643,10.068,0.088,0.038,-0.045
1.834,-0.628,10.07,0.082,0.042,0.015
1.746,-0.449,9.943,0.068,0.047,0.053
1.817,-0.344,9.824,0.009,0.063,0.09
1.86,-0.078,9.489,-0.053,0.085,0.192
1.873,0.105,9.407,-0.119,0.116,0.226
1.883,0.073,9.601,-0.18,0.138,0.197
1.911,-0.131,9.815,-0.224,0.161,0.13
1.968,-0.224,9.996,-0.221,0.151,0.055
2.03,-0.239,10.064,-0.193,0.137,-0.014
2.04,-0.228,9.978,-0.131,0.116,-0.059
2.078,-0.149,9.873,-0.094,0.106,-0.07
2.112,0.018,9.858,-0.084,0.106,-0.05
2.105,0.115,9.855,-0.062,0.104,-0.025
2.083,0.18,9.513,-0.026,0.102,-0.015
2.053,0.276,9.183,0,0.132,0.002
2.051,0.193,9.18,-0.014,0.174,0.032
2.08,0.137,9.477,-0.058,0.181,0.037
2.079,0.069,9.675,-0.105,0.165,0.026
2.07,0.051,9.678,-0.149,0.173,0.005
2.086,0.192,9.733,-0.177,0.189,-0.024
2.151,0.382,9.9,-0.188,0.189,-0.026
2.25,0.509,9.994,-0.177,0.172,-0.006
2.262,0.511,10.057,-0.136,0.139,0.006
2.217,0.418,9.952,-0.096,0.112,0.002

2.124,0.25,9.795,-0.146,0.164,0.055
2.151,0.255,9.807,-0.139,0.161,0.048
2.151,0.227,9.764,-0.139,0.163,0.038
2.131,0.211,9.723,-0.138,0.158,0.032
2.128,0.21,9.727,-0.133,0.152,0.035
2.141,0.196,9.753,-0.132,0.151,0.041
2.156,0.209,9.767,-0.146,0.156,0.048
2.181,0.26,9.808,-0.154,0.156,0.058
2.171,0.296,9.81,-0.158,0.156,0.061
2.148,0.321,9.798,-0.153,0.148,0.06
2.155,0.319,9.774,-0.148,0.148,0.057
2.149,0.291,9.76,-0.151,0.152,0.053
2.119,0.276,9.708,-0.147,0.147,0.052
2.152,0.273,9.695,-0.15,0.151,0.051
2.169,0.274,9.735,-0.142,0.144,0.056
2.143,0.273,9.731,-0.14,0.138,0.061
2.146,0.273,9.749,-0.146,0.142,0.061
2.125,0.242,9.7,-0.145,0.141,0.06
2.128,0.227,9.661,-0.152,0.151,0.058
2.107,0.243,9.619,-0.156,0.152,0.06
2.051,0.191,9.604,-0.162,0.151,0.067
2.111,0.2,9.584,-0.169,0.148,0.069
2.043,0.205,9.491,-0.179,0.154,0.073
2.016,0.113,9.338,-0.201,0.169,0.075
2.016,0.233,9.11,-0.241,0.188,0.077
1.991,-0.139,8.834,-0.328,0.224,0.108
1.75,-0.767,8.235,-0.416,0.293,0.127
1.201,0.237,7.545,-0.524,0.525,0.161
1.48,1.122,8.481,-0.893,0.809,0.327
2.682,1.322,10.345,-1.103,0.946,0.547
3.511,1.693,11.984,-1,0.816,0.559
3.253,-0.228,12.949,-0.631,0.649,0.402
2.526,-2.339,13.016,-0.45,0.518,0.167
1.892,-1.123,12.158,-0.588,0.385,0.093
1.657,0.349,10.641,-0.672,0.238,0.257
1.955,1.2,9.123,-0.403,0.164,0.345
1.799,0.526,9.215,0.042,0.142,0.235
1.557,-1.462,9.926,0.265,0.072,0.038
1.53,-1.108,9.849,-0.007,0.011,-0.028
1.687,-0.09,10.117,-0.594,0.059,-0.003
1.286,-0.968,13.499,-1.442,0.125,-0.165
0.864,-3.033,14.404,-2.304,-0.104,-0.266
1.74,1.303,9.045,-2.248,-0.514,0.171
3.138,4.95,2.285,-1.057,-0.365,0.388
4.79,2.242,9.801,0.8,-0.613,0.107
3.549,3.002,13.175,2.791,-0.548,-0.105
1.504,2.26,3.609,4.762,0.47,-0.139
0.486,-5.398,2.539,4.724,1.314,-0.068
2.977,-15.983,6.969,2.121,1.577,-0.392
3.813,-9.776,15.889,-0.7,1.6,-0.84
-5.034,3.804,19.369,-2.58,1.042,0.093
-7.276,19.519,14.208,-3.15,0.442,1.212
3.483,9.223,5.866,-1.209,0.624,1.076
6.135,3.165,8.901,0.919,-0.176,-0.101
2.071,-0.518,8.111,2.416,-0.496,-0.319
-0.039,-6.498,6.413,2.07,-0.546,-0.182
0.391,-6.65,5.37,0.462,-0.262,0.06
1.616,-3.138,5.59,-1.002,0.064,0.289
1.737,-1.182,6.283,-1.378,0.229,0.362
1.177,-1.604,7.463,-0.962,0.313,0.266
1.085,-0.939,9.896,-0.594,0.271,0.011
1.222,-0.175,12.489,-0.612,0.071,-0.27
1.051,1.217,12.733,-0.552,-0.081,-0.28
1.403,2.826,12.37,-0.646,-0.259,-0.041
1.969,3.017,11.487,-0.813,-0.509,0.106
2.169,4.342,10.88,-0.813,-0.71,0.02
2.839,-0.339,8.483,-0.432,-0.649,-0.11
2.686,-4.183,6.755,-0.09,-0.357,-0.667
1.944,-2.806,6.015,-0.38,0.008,-0.903
-0.105,-0.696,7.161,-0.83,0.148,-0.579
2.239,0.796,7.919,-0.771,-0.077,-0.12
3.914,0.799,8.741,-0.309,-0.033,0.116
2.588,0.039,9.683,-0.296,0.137,0.12
1.529,-0.184,11.132,-0.55,0.288,0.115
2.093,0.401,12.1,-0.8,0.293,0.125
2.451,1.428,12.168,-0.787,0.241,0.194
2.486,2.154,11.671,-0.595,0.167,0.249
2.467,2.388,11.062,-0.317,0.112,0.23
2.915,2.216,10.27,-0.027,0.061,0.158
2.813,1.665,9.756,0.182,0.012,0.092
2.5,0.799,9.856,0.23,0.006,0.02
2.387,-0.182,9.986,0.212,0.005,-0.064
2.255,-1.037,9.916,0.201,-0.008,-0.13
2.047,-1.568,9.881,0.163,-0.018,-0.143
1.873,-1.465,9.871,0.102,-0.023,-0.122
1.771,-0.998,9.727,0.036,-0.017,-0.052
1.759,-0.447,9.678,0.016,0.002,0.059
1.77,-0.099,9.577,-0.003,0.031,0.17
1.845,0.128,9.569,-0.048,0.075,0.24
1.922,0.028,9.778,-0.083,0.116,0.273
1.88,-0.308,10.093,-0.121,0.132,0.24
1.905,-0.442,10.179,-0.165,0.12,0.19
1.962,-0.447,10.206,-0.165,0.106,0.1
1.883,-0.335,10.09,-0.146,0.098,0.041
1.855,-0.192,9.936,-0.13,0.112,0.001
1.992,-0.053,9.764,-0.129,0.126,-0.014
2.019,0.161,9.557,-0.091,0.129,-0.001
2.018,0.307,9.475,-0.036,0.142,0.031
2.037,0.125,9.603,-0.018,0.145,0.056
2.06,-0.044,9.604,-0.03,0.149,0.059
2.033,-0.089,9.634,-0.049,0.151,0.054
2.034,-0.121,9.675,-0.08,0.152,0.041
2.098,-0.067,9.872,-0.106,0.142,0.026
2.072,0.061,9.854,-0.117,0.129,0.014

2.213,0.391,9.672,-0.169,0.172,0.078
2.194,0.337,9.692,-0.174,0.176,0.074
2.188,0.308,9.738,-0.179,0.163,0.069
2.213,0.384,9.751,-0.188,0.158,0.064
2.157,0.392,9.528,-0.185,0.16,0.067
2.173,0.313,9.527,-0.212,0.171,0.074
2.152,0.253,9.465,-0.244,0.17,0.079
2.275,0.187,9.596,-0.262,0.183,0.104
2.196,0.242,9.708,-0.266,0.195,0.144
2.255,0.568,9.745,-0.236,0.221,0.163
2.361,0.646,9.816,-0.267,0.221,0.118
2.327,0.459,9.603,-0.242,0.202,0.052
2.202,0.163,9.311,-0.212,0.195,0.023
2.129,0.128,8.941,-0.23,0.218,0.031
2.019,0,8.428,-0.265,0.302,0.078
2.105,-0.077,8.345,-0.331,0.441,0.136
2.181,0.155,8.989,-0.511,0.58,0.21
2.244,0.428,9.773,-0.695,0.67,0.245
2.336,-0.203,10.768,-0.762,0.694,0.181
2.366,-0.301,11.404,-0.793,0.638,0.109
2.53,-0.082,11.962,-0.779,0.557,0.164
2.512,0.378,12.203,-0.687,0.48,0.222
2.089,0.697,11.418,-0.496,0.358,0.283
1.737,0.202,9.74,-0.312,0.271,0.259
1.786,0.081,8.355,-0.18,0.261,0.152
1.912,-0.126,8.849,-0.148,0.252,0.075
1.784,-0.592,9.62,-0.189,0.203,0
1.67,-0.493,10.355,-0.418,0.179,-0.078
1.499,-0.391,12.145,-0.913,0.192,-0.107
0.921,-2.143,15.292,-1.596,-0.019,-0.098
1.41,-1.265,10.911,-1.642,-0.465,0.27
2.571,2.226,3.738,-0.885,-0.479,0.529
4.818,2.252,7.548,0.333,-0.299,0.139
4.367,6.712,10.326,1.976,-0.459,-0.204
2.364,7.118,3.713,4.486,0.499,0.063
-0.284,-2.622,3.434,4.82,1.44,0.311
1.85,-16.29,8.951,2.429,1.628,-0.049
4.042,-13.8,14.833,-1.489,1.429,-0.774
-0.198,3.273,15.436,-2.936,1.272,-0.333
-8.29,16.463,19.435,-3.305,0.553,1.092
-0.438,13.727,5.31,-1.162,0.67,1.496
7.044,2.929,7.515,0.745,0.19,0.082
4.028,1.319,11.442,1.803,-0.314,-0.608
0.096,-2.514,8.135,2.112,-0.355,-0.208
0.155,-7.08,5.423,1.466,-0.2,0.201
1.915,-4.478,6.274,0.058,-0.026,0.335
2.351,0.15,6.846,-0.972,0.059,0.317
1.22,-0.25,7.567,-1.013,0.118,0.267
0.617,-2.222,8.497,-0.646,0.156,0.101
0.789,-1.483,9.227,-0.359,0.219,-0.023
1.27,-0.388,10.842,-0.255,0.151,-0.071
1.58,0.534,11.633,-0.11,-0.04,-0.174
1.099,1.095,11.585,-0.117,-0.165,-0.291
1.226,1.838,11.745,-0.282,-0.313,-0.22
1.33,1.702,10.764,-0.62,-0.579,-0.126
1.548,2.815,11.503,-0.786,-0.765,-0.168
2.526,2.002,9.373,-0.646,-0.724,-0.207
3.28,-0.039,7.841,-0.225,-0.427,-0.308
3.045,-2.39,6.799,-0.255,-0.063,-0.555
1.006,-0.741,7.008,-0.797,0.181,-0.53
0.815,1.31,7.704,-1.077,0.11,-0.178
3.069,2.015,8.83,-0.72,-0.021,0.131
3.243,1.326,9.967,-0.199,-0.003,0.166
2.22,0.381,10.928,-0.068,0.093,0.031
1.531,0.232,11.572,-0.109,0.148,0.077
2.006,0.941,11.513,-0.177,0.116,0.156
2.227,1.598,10.938,-0.192,0.116,0.261
2.225,1.662,10.487,-0.171,0.127,0.276
2.348,1.39,10.132,-0.157,0.125,0.19
2.408,1.055,9.832,-0.123,0.124,0.088
2.42,0.866,9.71,-0.102,0.133,0.023
2.476,0.54,10.041,-0.106,0.102,-0.006
2.344,0.17,10.312,-0.087,0.04,-0.014
2.214,-0.148,10.346,-0.071,0.012,0.015
2.127,-0.196,10.123,-0.067,-0.003,0.036
2.074,-0.003,9.858,-0.074,0.006,0.073
2.039,0.164,9.638,-0.078,0.029,0.13
2.025,0.156,9.543,-0.071,0.057,0.149
1.98,0.016,9.576,-0.081,0.081,0.129
1.947,0.008,9.649,-0.113,0.104,0.118
1.922,0.079,9.78,-0.141,0.119,0.117
1.955,0.183,9.772,-0.15,0.12,0.105
2.023,0.288,9.773,-0.169,0.125,0.084
2.01,0.374,9.857,-0.19,0.123,0.058
2.051,0.345,10.009,-0.192,0.12,0.044
2.049,0.164,10.02,-0.154,0.099,0.031
2.045,-0.13,9.782,-0.107,0.084,0.004
2.01,-0.092,9.434,-0.111,0.094,-0.019
2.045,0.212,9.244,-0.131,0.119,0.005
2.131,0.41,9.258,-0.119,0.14,0.056
2.128,0.455,9.246,-0.067,0.149,0.083
2.088,0.418,9.349,-0.057,0.164,0.073
2.153,0.436,9.572,-0.097,0.169,0.039
2.138,0.498,9.73,-0.14,0.17,0.014
2.143,0.593,9.778,-0.157,0.17,0.014
2.164,0.598,9.783,-0.148,0.158,0.02
2.193,0.581,9.717,-0.137,0.151,0.016
2.202,0.572,9.508,-0.126,0.159,0.012
2.24,0.514,9.451,-0.12,0.169,0.017
2.206,0.502,9.513,-0.113,0.174,0.025
2.185,0.509,9.583,-0.099,0.173,0.032
2.184,0.444,9.621,-0.087,0.177,0.036
2.215,0.433,9.674,-0.089,0.181,0.028
2.214,0.427,9.751,-0.107,0.183,0.021

2.253,0.57,9.709,-0.169,0.189,0.052
2.251,0.575,9.739,-0.175,0.192,0.054
2.231,0.565,9.739,-0.164,0.184,0.057
2.249,0.548,9.699,-0.155,0.181,0.06
2.256,0.547,9.676,-0.156,0.182,0.065
2.258,0.559,9.693,-0.162,0.185,0.069
2.279,0.558,9.736,-0.167,0.18,0.067
2.269,0.583,9.74,-0.168,0.18,0.064
2.26,0.588,9.701,-0.171,0.18,0.061
2.278,0.566,9.707,-0.177,0.183,0.06
2.261,0.538,9.72,-0.18,0.186,0.058
2.235,0.541,9.722,-0.176,0.181,0.057
2.271,0.545,9.774,-0.184,0.187,0.064
2.271,0.528,9.792,-0.187,0.186,0.071
2.244,0.53,9.785,-0.187,0.183,0.074
2.249,0.557,9.736,-0.192,0.187,0.076
2.234,0.569,9.683,-0.194,0.185,0.078
2.225,0.573,9.621,-0.193,0.181,0.078
2.207,0.557,9.536,-0.188,0.175,0.073
2.181,0.517,9.374,-0.206,0.186,0.068
2.141,0.443,9.178,-0.246,0.198,0.07
2.12,0.403,8.998,-0.323,0.208,0.081
2.171,0.151,8.756,-0.415,0.239,0.101
1.773,0.028,8.299,-0.414,0.346,0.138
1.583,0.083,8.292,-0.551,0.516,0.174
2.049,0.537,9.053,-0.764,0.621,0.227
2.382,0.609,10.249,-0.886,0.618,0.439
3.008,0.448,10.485,-1.117,0.658,0.596
3.16,0.567,10.491,-1.331,0.705,0.56
2.883,-0.33,10.717,-1.396,0.66,0.376
2.349,-0.621,11.219,-1.301,0.536,0.232
1.914,0.334,12.033,-1.072,0.426,0.29
2.249,1.253,12.431,-0.763,0.307,0.374
2.19,1.456,11.416,-0.345,0.181,0.302
1.962,0.55,9.577,-0.047,0.114,0.152
1.758,-0.618,8.497,0.051,0.098,0.069
1.773,-0.481,8.855,-0.139,0.113,0.079
1.252,-0.697,11.041,-0.787,0.213,-0.011
0.894,-2.543,13.655,-1.62,0.109,-0.148
1.733,0.009,8.536,-1.816,-0.335,0.026
3.158,4.77,2.781,-0.908,-0.124,0.3
3.402,-0.698,10.203,0.651,-0.325,0.123
3.462,1.102,13.714,2.448,-0.411,-0.186
3.04,3.38,6.358,4.407,0.367,-0.136
0.76,-2.841,2.954,4.509,1.147,0.032
2.358,-9.229,6.984,2.107,1.59,-0.122
5.128,-7.939,13.667,-0.259,1.782,-0.315
-3.025,0.424,18.604,-1.429,1.335,0.033
-7.719,16.914,18.601,-2.423,0.584,0.736
1.92,8.409,5.29,-0.441,0.757,0.971
6.118,0.757,9.49,1.544,-0.005,-0.01
2.261,-0.719,9.378,2.275,-0.33,-0.235
-0.113,-5.11,6.061,2.112,-0.328,-0.105
0.658,-6.807,6.234,0.901,-0.132,0.111
1.673,-2.179,5.866,-0.518,0.116,0.212
1.717,-0.14,7.172,-1.36,0.202,0.215
0.816,-0.587,8.717,-1.35,0.231,0.127
0.571,-0.749,9.065,-1.064,0.28,0.029
0.906,-0.164,9.618,-0.807,0.3,-0.118
1.395,1.121,11.764,-0.377,0.127,-0.262
1.085,1.928,12.674,-0.01,-0.164,-0.355
0.714,2.093,12.425,-0.054,-0.318,-0.228
1.62,2.519,11.379,-0.537,-0.486,0.062
2.418,3.327,11.409,-1.171,-0.73,0.094
2.863,3.59,10.74,-1.245,-0.847,0.077
3.453,-0.734,8.586,-1.118,-0.742,-0.159
3.655,-0.917,6.918,-0.578,-0.422,-0.472
2.712,-1.625,7.139,-0.781,-0.174,-0.431
0.925,0.28,7.234,-0.882,0.011,-0.209
1.291,1.038,6.993,-0.636,0.036,0.073
3.104,0.324,7.757,-0.263,0.052,0.08
3.185,-0.195,8.953,-0.042,0.128,-0.056
2.163,-0.272,10.489,-0.14,0.175,-0.078
1.56,0.162,11.687,-0.287,0.22,-0.002
1.994,0.909,12.088,-0.389,0.187,0.112
2.319,1.417,11.692,-0.414,0.138,0.225
2.449,1.729,11.07,-0.359,0.105,0.282
2.439,1.78,10.051,-0.212,0.092,0.288
2.459,1.395,8.981,-0.078,0.134,0.246
2.541,0.886,8.804,-0.089,0.185,0.178
2.611,0.4,9.324,-0.123,0.193,0.104
2.486,-0.169,9.744,-0.078,0.153,0.008
2.309,-0.747,10.087,-0.029,0.112,-0.068
2.144,-0.703,10.295,-0.018,0.083,-0.094
2.063,-0.238,10.519,-0.036,0.048,-0.065
2.041,0.132,10.305,-0.01,0.018,0.017
1.984,0.214,9.936,0.035,0.025,0.105
1.978,0.282,9.654,0.043,0.053,0.156
1.967,0.244,9.554,0.011,0.084,0.18
2.008,0.064,9.503,-0.064,0.112,0.174
2.087,-0.012,9.531,-0.162,0.134,0.146
2.106,-0.037,9.767,-0.23,0.145,0.11
2.092,-0.034,9.96,-0.222,0.135,0.031
2.06,0.035,10.073,-0.185,0.12,-0.029
2.046,0.185,9.809,-0.132,0.116,-0.048
2.043,0.341,9.584,-0.1,0.132,-0.04
2.071,0.357,9.567,-0.089,0.157,-0.018
2.134,0.469,9.522,-0.053,0.171,0.014
2.145,0.306,9.356,-0.029,0.173,0.062
2.12,0.287,9.329,-0.046,0.18,0.092
2.127,0.332,9.451,-0.106,0.191,0.096
2.161,0.351,9.56,-0.173,0.204,0.076
2.231,0.34,9.816,-0.209,0.196,0.058
2.212,0.321,9.849,-0.217,0.182,0.041

2.288,0.559,9.637,-0.19,0.19,0.071
2.299,0.573,9.627,-0.183,0.186,0.074
2.287,0.567,9.613,-0.177,0.185,0.076
2.291,0.554,9.6,-0.17,0.181,0.074
2.308,0.548,9.636,-0.174,0.184,0.07
2.285,0.553,9.653,-0.178,0.184,0.069
2.3,0.55,9.647,-0.186,0.191,0.066
2.282,0.523,9.627,-0.185,0.194,0.068
2.291,0.498,9.6,-0.183,0.193,0.07
2.296,0.528,9.611,-0.184,0.194,0.075
2.264,0.55,9.616,-0.183,0.196,0.079
2.272,0.557,9.63,-0.179,0.198,0.076
2.289,0.519,9.664,-0.175,0.194,0.072
2.272,0.517,9.668,-0.181,0.196,0.066
2.277,0.519,9.667,-0.179,0.198,0.065
2.278,0.528,9.644,-0.18,0.2,0.068
2.283,0.513,9.692,-0.183,0.201,0.069
2.288,0.525,9.717,-0.182,0.194,0.073
2.282,0.547,9.718,-0.181,0.193,0.077
2.291,0.518,9.739,-0.182,0.192,0.074
2.292,0.516,9.708,-0.185,0.193,0.069
2.269,0.527,9.59,-0.184,0.195,0.067
2.222,0.509,9.376,-0.196,0.201,0.072
2.189,0.416,9.304,-0.243,0.213,0.079
2.089,0.295,9.049,-0.303,0.221,0.089
1.941,0.045,8.41,-0.378,0.27,0.108
1.016,0.159,8.705,-0.473,0.436,0.188
1.844,0.985,9.061,-0.824,0.741,0.353
2.879,1.236,10.403,-1.024,0.958,0.466
3.248,1.148,11.324,-1.143,1.003,0.382
3.27,1.071,10.969,-0.972,0.864,0.148
2.948,-0.178,10.313,-0.594,0.666,0.006
2.228,-0.783,10.856,-0.501,0.489,0.082
1.931,-0.253,11.598,-0.53,0.351,0.337
1.905,0.229,11.748,-0.401,0.236,0.452
2.082,0.778,10.42,-0.212,0.186,0.313
1.756,-0.169,8.79,0.008,0.178,0.071
1.59,-0.999,8.462,-0.064,0.202,-0.088
1.827,0.246,9.595,-0.506,0.208,-0.054
1.637,0.115,12.832,-1.19,0.162,-0.055
1.042,-1.592,12.958,-1.892,-0.077,-0.027
1.997,0.331,8.31,-2.016,-0.406,0.283
3.791,5.188,2.919,-0.915,-0.317,0.385
4.929,2.796,10.095,0.373,-0.44,0.221
2.994,1.877,11.91,2.398,-0.333,0.058
0.684,1.083,3.685,4.701,0.641,0.053
0.453,-2.975,3.332,4.851,1.428,0.065
3.238,-13.298,10.43,2.607,1.533,-0.235
4.238,-12.455,16.013,-0.761,1.338,-0.75
-3.446,4.563,19.367,-2.143,1.166,-0.085
-6.777,18.574,17.576,-3.286,0.569,1.275
3.316,9.793,4.048,-1.245,0.826,0.937
6.085,4.635,9.391,1.082,-0.059,0.083
1.543,1.278,8.788,2.374,-0.446,-0.221
-0.491,-5.681,5.207,2.082,-0.421,-0.23
0.576,-6.9,6.404,0.558,-0.142,0.065
1.639,-1.556,6.966,-1.054,0.119,0.4
2.01,1.065,7.535,-1.573,0.227,0.507
1.609,-0.233,9.092,-1.146,0.178,0.356
1.258,-0.614,10.544,-0.581,0.053,0.023
1.372,1.226,11.347,-0.266,-0.087,-0.216
1.765,2.233,12.715,-0.405,-0.176,-0.102
2.122,2.75,12.413,-0.635,-0.372,0.049
1.983,2.673,11.148,-0.853,-0.62,0.156
1.857,3.236,11.385,-1.239,-0.725,0.057
2.838,0.954,8.892,-1.027,-0.642,-0.032
3.812,-2.719,6.928,-0.42,-0.396,-0.332
2.535,-4.185,6.115,-0.519,-0.104,-0.689
0.902,-1.19,6.569,-0.592,0.164,-0.539
0.405,1.248,7.354,-0.506,0.161,-0.052
2.404,1.303,8.214,-0.364,0.048,0.118
3.454,0.29,9.222,-0.198,0.159,0.106
2.886,0.175,10.451,-0.341,0.211,0.133
2.251,0.548,11.414,-0.678,0.194,0.132
2.134,1.252,11.675,-0.795,0.185,0.148
2.398,1.899,11.528,-0.663,0.149,0.155
2.612,2.249,11.074,-0.434,0.105,0.142
2.693,2.274,10.472,-0.135,0.065,0.098
2.636,1.688,9.828,0.112,0.039,0.041
2.576,1.078,9.532,0.228,0.037,-0.039
2.475,0.665,9.491,0.277,0.046,-0.099
2.399,0.044,9.715,0.261,0.043,-0.117
2.193,-0.518,9.85,0.16,0.04,-0.097
2.092,-0.687,9.978,0,0.038,-0.091
2.122,-0.31,9.969,-0.111,0.041,-0.066
2.085,0.113,9.885,-0.138,0.05,0.018
2.019,0.509,9.7,-0.116,0.066,0.11
2.022,0.811,9.667,-0.101,0.088,0.188
2.006,0.909,9.556,-0.07,0.109,0.239
2.043,0.808,9.506,-0.07,0.145,0.259
2.16,0.571,9.665,-0.118,0.176,0.235
2.18,0.327,9.755,-0.163,0.188,0.176
2.139,0.214,9.721,-0.204,0.196,0.097
2.18,0.203,9.836,-0.231,0.194,0.043
2.201,0.296,9.862,-0.226,0.192,0.01
2.217,0.273,9.885,-0.183,0.182,-0.001
2.173,0.223,9.712,-0.133,0.177,-0.01
2.112,0.311,9.462,-0.099,0.203,-0.021
2.171,0.364,9.31,-0.082,0.215,0
2.23,0.43,9.428,-0.069,0.212,0.059
2.205,0.37,9.659,-0.081,0.206,0.104
2.221,0.443,9.748,-0.125,0.192,0.087
2.289,0.573,9.715,-0.175,0.193,0.067
2.32,0.584,9.769,-0.217,0.19,0.052

2.317,0.557,9.611,-0.183,0.192,0.072
2.317,0.557,9.584,-0.181,0.192,0.072
2.309,0.539,9.576,-0.18,0.191,0.074
2.327,0.578,9.6,-0.188,0.199,0.071
2.339,0.587,9.652,-0.192,0.2,0.07
2.334,0.592,9.648,-0.188,0.202,0.067
2.323,0.604,9.604,-0.189,0.203,0.065
2.31,0.636,9.586,-0.188,0.203,0.066
2.334,0.629,9.59,-0.184,0.2,0.068
2.336,0.636,9.635,-0.19,0.204,0.076
2.316,0.651,9.71,-0.189,0.195,0.082
2.304,0.649,9.689,-0.187,0.194,0.077
2.337,0.683,9.639,-0.187,0.198,0.072
2.351,0.668,9.642,-0.181,0.198,0.07
2.31,0.629,9.611,-0.178,0.196,0.069
2.304,0.591,9.595,-0.177,0.193,0.066
2.311,0.618,9.626,-0.178,0.19,0.065
2.293,0.622,9.619,-0.177,0.194,0.068
2.299,0.579,9.569,-0.179,0.197,0.068
2.286,0.566,9.5,-0.195,0.205,0.068
2.252,0.524,9.371,-0.217,0.215,0.07
2.236,0.481,9.175,-0.25,0.221,0.08
2.121,0.391,8.945,-0.302,0.24,0.096
2.171,0.079,8.589,-0.336,0.288,0.111
1.639,0.283,8.247,-0.363,0.422,0.147
1.154,0.486,8.616,-0.577,0.633,0.186
2.242,0.346,9.298,-0.783,0.849,0.278
3.041,1.196,10.435,-0.901,0.952,0.41
3.167,1.156,10.792,-0.901,0.901,0.391
3.083,0.204,10.719,-0.669,0.808,0.232
2.959,-0.647,11.245,-0.761,0.681,0.108
2.114,-0.872,12.582,-0.956,0.517,0.129
1.814,1.147,12.023,-0.976,0.378,0.26
2.258,2.221,10.947,-0.584,0.261,0.348
2.271,0.903,9.493,-0.027,0.149,0.236
1.692,-0.781,8.877,0.119,0.135,0.02
1.722,-0.838,9.174,-0.073,0.146,-0.011
2.007,-0.163,9.562,-0.298,0.132,0.038
1.977,0.831,10.245,-0.668,0.136,0
1.462,-0.937,13.217,-1.316,0.141,-0.131
1.16,-2.331,13.348,-2.015,-0.059,-0.139
2.142,0.598,9.356,-1.969,-0.423,0.247
2.928,4.318,2.598,-0.875,-0.32,0.368
3.781,1.133,7.613,0.745,-0.429,0.067
2.727,3.724,9.132,2.429,-0.319,-0.19
2.61,4.845,5.245,4.473,0.605,-0.011
0.289,-3.126,3.133,4.89,1.231,0.126
2.07,-15.611,8.797,2.986,1.391,-0.226
4.298,-12.677,14.928,-1.12,1.495,-0.84
0.205,3.935,13.763,-2.854,1.691,-0.25
-6.701,15.631,19.426,-3.745,0.871,0.98
-0.746,15.86,7.258,-1.844,0.78,1.1
6.612,4.777,8.287,0.558,0.18,0.209
3.753,0.336,9.883,2.147,-0.324,-0.387
0.269,-3.811,6.672,2.368,-0.379,-0.448
0.315,-7.297,5.995,1.231,-0.181,-0.095
1.417,-4.572,6.973,-0.565,0.009,0.166
1.856,0.136,7.051,-1.566,0.148,0.298
1.369,0.07,7.641,-1.542,0.191,0.279
0.705,-1.481,8.55,-0.899,0.163,0.058
1.134,-0.03,9.67,-0.257,0.104,-0.191
1.771,2.146,11.561,-0.181,0.01,-0.225
1.607,3.121,12.727,-0.361,-0.147,-0.162
1.528,3.263,11.879,-0.423,-0.376,-0.009
1.63,3.42,11.269,-0.63,-0.582,0.103
2.254,3.384,10.319,-0.743,-0.629,0.1
3.507,0.366,8.48,-0.35,-0.542,0.046
3.138,-2.802,7.61,-0.051,-0.404,-0.344
2.017,-2.738,7.247,-0.376,-0.187,-0.577
0.112,-0.053,7.569,-0.584,0.019,-0.344
1.447,1.485,8.265,-0.462,-0.084,0.043
3.519,1.546,9.023,0.044,-0.119,0.154
3.402,0.443,9.903,0.232,-0.043,0.164
2.541,0.162,10.627,-0.071,0.016,0.116
2.066,0.836,10.909,-0.449,0.082,0.133
2.081,1.236,11.083,-0.672,0.139,0.174
2.417,1.458,11.137,-0.71,0.132,0.188
2.581,1.646,10.871,-0.578,0.101,0.17
2.644,1.731,10.655,-0.394,0.064,0.137
2.549,1.792,9.933,-0.158,0.031,0.102
2.505,1.558,9.225,0.001,0.044,0.086
2.467,1.061,8.972,0.045,0.071,0.089
2.452,0.326,9.389,0.012,0.085,0.095
2.261,-0.292,9.673,-0.003,0.071,0.067
2.074,-0.669,9.952,-0.019,0.056,0.024
2.077,-0.552,10.055,-0.05,0.045,0.016
2.058,-0.145,10.162,-0.084,0.059,0.066
2.022,0.159,10.021,-0.086,0.069,0.125
2.018,0.468,9.718,-0.096,0.095,0.16
2.049,0.593,9.519,-0.102,0.127,0.198
2.047,0.476,9.505,-0.121,0.147,0.22
2.03,0.382,9.359,-0.142,0.164,0.209
2.073,0.229,9.434,-0.187,0.191,0.169
2.125,0.044,9.642,-0.215,0.187,0.107
2.133,0.013,9.809,-0.209,0.174,0.04
2.151,0.172,9.893,-0.202,0.166,-0.007
2.203,0.422,9.932,-0.187,0.147,-0.017
2.232,0.594,9.834,-0.147,0.14,-0.005
2.243,0.568,9.731,-0.1,0.133,0.014
2.155,0.58,9.465,-0.067,0.142,0.023
2.112,0.591,9.126,-0.044,0.178,0.035
2.197,0.543,9.146,-0.06,0.204,0.063
2.234,0.506,9.394,-0.084,0.204,0.078
2.245,0.479,9.605,-0.135,0.196,0.057

2.401,0.677,9.604,-0.194,0.191,0.073
2.385,0.685,9.612,-0.193,0.192,0.072
2.375,0.669,9.575,-0.188,0.192,0.074
2.369,0.647,9.574,-0.185,0.195,0.077
2.394,0.674,9.58,-0.192,0.202,0.078
2.409,0.729,9.587,-0.19,0.203,0.078
2.395,0.736,9.572,-0.182,0.2,0.081
2.377,0.717,9.541,-0.184,0.203,0.08
2.398,0.697,9.605,-0.193,0.213,0.079
2.4,0.663,9.681,-0.197,0.209,0.079
2.397,0.702,9.681,-0.197,0.207,0.08
2.387,0.751,9.661,-0.198,0.209,0.085
2.399,0.769,9.636,-0.193,0.213,0.087
2.384,0.718,9.636,-0.183,0.205,0.085
2.376,0.696,9.654,-0.18,0.195,0.079
2.371,0.706,9.645,-0.181,0.191,0.077
2.373,0.669,9.649,-0.186,0.195,0.077
2.377,0.645,9.646,-0.198,0.2,0.077
2.392,0.675,9.677,-0.196,0.196,0.078
2.378,0.7,9.664,-0.193,0.19,0.082
2.381,0.697,9.671,-0.193,0.188,0.085
2.378,0.706,9.65,-0.192,0.189,0.083
2.374,0.689,9.603,-0.186,0.185,0.079
2.373,0.677,9.578,-0.185,0.188,0.076
2.376,0.679,9.608,-0.187,0.19,0.074
2.369,0.694,9.609,-0.191,0.192,0.072
2.356,0.726,9.602,-0.199,0.202,0.073
2.34,0.736,9.566,-0.203,0.202,0.079
2.33,0.76,9.498,-0.207,0.203,0.083
2.337,0.739,9.456,-0.237,0.214,0.093
2.22,0.679,9.322,-0.274,0.215,0.104
2.206,0.526,9.089,-0.33,0.222,0.116
2.268,0.233,8.833,-0.404,0.242,0.123
2.197,0.136,8.585,-0.405,0.306,0.147
1.728,0.988,8.28,-0.497,0.485,0.211
1.571,0.711,8.507,-0.662,0.655,0.269
1.832,0.922,9.129,-0.657,0.763,0.328
2.91,1.124,10.153,-0.902,0.861,0.428
3.554,0.667,10.747,-1.092,0.856,0.452
3.539,-0.317,11.665,-1.055,0.742,0.313
2.942,-0.561,12.707,-1.026,0.59,0.184
2.314,0.427,13.555,-1.028,0.442,0.238
1.946,1.381,12.048,-0.698,0.246,0.34
2.023,1.425,9.356,-0.211,0.176,0.314
2.112,0.225,8.227,0.075,0.168,0.176
1.946,-0.578,8.06,0.053,0.136,0.059
1.931,0.067,8.819,-0.254,0.142,0.048
1.717,-0.091,11.416,-1.03,0.216,-0.056
0.716,-2.833,14.717,-2.11,0.122,-0.159
1.897,0.929,9.137,-2.358,-0.347,0.214
3.1,6.075,1.678,-1.171,-0.261,0.519
3.841,0.922,10.609,1.033,-0.205,0.154
2.865,-0.554,16.567,2.506,-0.457,-0.249
2.191,2.723,6.249,4.477,0.326,-0.177
0.789,-0.974,0.605,4.429,1.185,0.427
2.992,-9.71,5.094,1.99,1.74,0.271
5.751,-7.591,15.657,0.033,1.82,-0.341
-0.263,4.166,17.217,-0.741,1.387,0.004
-6.825,15.294,18.852,-2.192,0.5,0.671
0.512,6.497,5.201,-0.922,0.749,0.731
5.508,2.849,9.029,0.666,0.025,0.232
2.681,0.26,8.412,1.744,-0.257,0.052
0.41,-4.932,6.206,1.685,-0.347,-0.037
0.431,-6.527,5.97,0.349,-0.166,0.105
1.35,-2.878,6.202,-0.998,0.069,0.227
1.733,-0.834,7.249,-1.513,0.207,0.317
1.376,-1.129,8.582,-1.221,0.265,0.247
1.281,-0.608,9.749,-0.793,0.222,0.015
1.387,0.546,12.189,-0.626,0.057,-0.257
1.274,2.246,12.793,-0.492,-0.09,-0.257
1.803,3.872,12.529,-0.465,-0.307,-0.004
1.95,3.113,11.966,-0.503,-0.607,0.12
2.198,3.821,11.249,-0.761,-0.914,-0.022
2.718,-0.209,9.287,-0.85,-0.822,-0.206
3.773,-4.178,6.326,-0.636,-0.489,-0.574
1.167,-2.746,4.508,-0.868,-0.008,-0.706
0.344,0.413,5.663,-0.952,0.141,-0.364
3.885,2.757,6.618,-0.242,-0.021,0.042
3.507,0.868,7.831,0.25,0.062,0.114
1.762,-0.789,10.131,0.03,0.229,-0.028
1.74,-0.543,12.426,-0.438,0.335,-0.05
2.306,0.767,13.408,-0.711,0.33,0.046
2.446,2.331,12.887,-0.732,0.276,0.158
2.521,2.82,12.132,-0.697,0.207,0.22
2.886,3.063,10.992,-0.53,0.132,0.189
2.95,3.029,9.389,-0.182,0.082,0.126
2.728,1.898,8.437,0.098,0.097,0.049
2.575,0.673,8.531,0.184,0.125,-0.048
2.533,-0.307,9.238,0.15,0.111,-0.11
2.401,-0.46,9.811,0.077,0.067,-0.129
2.232,-0.346,10.023,-0.02,0.055,-0.082
2.048,-0.223,10.39,-0.126,0.071,-0.035
2.142,0.139,10.446,-0.168,0.071,0.036
2.163,0.55,10.032,-0.156,0.069,0.122
2.066,0.632,9.375,-0.1,0.086,0.194
2.075,0.474,9.276,-0.093,0.131,0.251
2.079,0.118,9.479,-0.115,0.158,0.26
2.091,0.027,9.635,-0.154,0.161,0.201
2.078,0.096,9.708,-0.209,0.161,0.121
2.099,0.39,9.737,-0.232,0.163,0.052
2.138,0.487,9.69,-0.205,0.156,0.029
2.205,0.483,9.707,-0.165,0.151,0.027
2.224,0.376,9.846,-0.154,0.148,0.017
2.292,0.303,9.74,-0.142,0.132,0.018

2.337,0.598,9.175,-0.311,0.238,0.096
2.329,0.31,8.986,-0.344,0.28,0.127
2.144,0.623,8.529,-0.387,0.397,0.142
1.975,1.028,8.31,-0.542,0.541,0.171
2.089,0.849,8.605,-0.627,0.665,0.202
2.213,0.228,9.645,-0.646,0.718,0.24
2.837,0.284,10.634,-0.8,0.718,0.254
2.998,0.79,11.072,-0.865,0.656,0.238
2.766,0.761,10.644,-0.761,0.573,0.176
2.69,0.276,10.742,-0.733,0.541,0.107
2.529,0.202,11.335,-0.737,0.495,0.118
2.346,-0.021,11.535,-0.659,0.349,0.144
2.22,0.435,10.942,-0.568,0.196,0.13
2.277,1.047,10.075,-0.378,0.098,0.138
2.18,0.594,9.427,-0.244,0.073,0.122
2.048,-0.057,9.176,-0.227,0.084,0.058
2.008,-0.196,9.233,-0.248,0.097,0.035
1.819,-0.018,9.134,-0.259,0.125,0.049
1.845,0.123,9.389,-0.312,0.171,0.054
1.887,0.122,9.65,-0.394,0.179,0.065
1.855,0.404,9.649,-0.486,0.173,0.081
1.698,0.993,10.21,-0.702,0.214,0.139
1.257,-0.093,12.435,-1.249,0.22,0.094
0.779,-0.858,11.9,-1.397,0.071,0.147
2.542,0.718,9.483,-0.996,-0.126,0.4
5.621,3.135,6.938,0.107,-0.098,0.226
5.542,3.444,8.648,1.512,-0.274,-0.198
3.535,6.639,4.458,4.282,0.479,-0.036
1.066,0.748,4.974,4.821,1.232,0.52
1.697,-7.459,10.663,3.083,1.74,0.303
1.858,-12.324,17.32,0.332,1.516,-0.313
-2.45,-5.448,18.795,-1.567,1.074,-0.512
-5.934,14.011,19.296,-3.703,0.455,0.092
1.17,14.177,7.653,-2.318,0.536,1.371
6.534,6.702,5.815,0.252,0.099,0.942
4.19,2.443,7.13,2.234,-0.325,-0.048
0.93,-3.432,8.216,2.624,-0.555,-0.461
0.008,-7.065,5.573,1.839,-0.371,-0.196
0.897,-6.788,5.867,0.07,-0.066,0.124
1.482,-2.753,6.951,-1.287,0.139,0.291
1.224,-0.471,7.855,-1.649,0.32,0.367
1.218,0.08,9.523,-1.313,0.349,0.2
1.741,1.482,10.632,-0.814,0.196,-0.082
1.526,2.889,11.64,-0.627,0.011,-0.24
1.341,3.684,12.152,-0.74,-0.151,-0.121
1.946,4.202,11.055,-0.791,-0.397,0.072
2.807,5.033,12.429,-0.95,-0.729,0.099
2.918,1.977,9.882,-0.729,-0.865,-0.059
4.145,-2.762,7.457,-0.023,-0.599,-0.331
2.997,-4.47,5.818,-0.391,-0.284,-0.74
-0.52,-1.443,6.39,-0.793,0.141,-0.66
0.814,0.938,6.22,-0.733,0.025,-0.189
4.344,2.244,7.367,0.009,0.053,0.105
3.625,1.087,8.404,0.235,0.242,0.139
2.291,0.624,10.185,-0.09,0.293,0.178
2.208,0.874,11.24,-0.524,0.27,0.206
2.379,0.961,12.075,-0.827,0.253,0.195
2.378,1.557,12.086,-0.84,0.211,0.14
2.473,2.189,11.515,-0.703,0.156,0.125
2.777,2.732,10.873,-0.491,0.119,0.139
2.909,2.777,10.082,-0.157,0.104,0.154
2.937,2.136,9.312,0.115,0.104,0.126
2.876,1.342,9.179,0.182,0.119,0.073
2.754,0.46,9.605,0.159,0.106,0.03
2.541,-0.332,9.779,0.1,0.083,0
2.338,-0.753,9.92,0.001,0.074,-0.031
2.238,-0.672,10.062,-0.096,0.066,-0.037
2.146,-0.268,10.118,-0.165,0.065,-0.007
2.139,0.441,10.124,-0.18,0.058,0.057
2.138,0.924,10.049,-0.15,0.057,0.136
2.181,1.056,9.865,-0.083,0.058,0.198
2.162,0.969,9.519,-0.019,0.062,0.251
2.14,0.798,9.4,-0.016,0.094,0.261
2.102,0.611,9.425,-0.062,0.136,0.224
2.188,0.378,9.609,-0.134,0.173,0.151
2.205,0.159,9.746,-0.177,0.165,0.076
2.12,0.116,9.656,-0.195,0.16,0.004
2.172,0.313,9.547,-0.217,0.177,-0.045
2.239,0.565,9.638,-0.21,0.179,-0.038
2.256,0.755,9.696,-0.155,0.161,0
2.322,0.931,9.716,-0.106,0.159,0.045
2.32,0.876,9.601,-0.053,0.151,0.085
2.292,0.812,9.369,-0.037,0.164,0.107
2.316,0.742,9.266,-0.041,0.187,0.112
2.352,0.734,9.238,-0.076,0.205,0.102
2.363,0.768,9.286,-0.118,0.215,0.084
2.388,0.775,9.477,-0.162,0.211,0.059
2.417,0.88,9.574,-0.19,0.209,0.027
2.445,0.971,9.515,-0.174,0.21,-0.002
2.45,0.895,9.552,-0.153,0.209,-0.02
2.426,0.821,9.64,-0.142,0.2,-0.034
2.443,0.891,9.7,-0.149,0.194,-0.044
2.494,0.964,9.7,-0.142,0.185,-0.014
2.446,0.959,9.567,-0.116,0.175,0.035
2.366,0.945,9.361,-0.105,0.181,0.064
2.382,0.916,9.294,-0.109,0.205,0.082
2.426,0.823,9.459,-0.146,0.223,0.092
2.439,0.844,9.62,-0.19,0.224,0.086
2.43,0.931,9.703,-0.205,0.219,0.073
2.462,0.968,9.769,-0.194,0.218,0.061
2.477,0.929,9.784,-0.17,0.209,0.053
2.475,0.88,9.725,-0.156,0.195,0.047
2.428,0.874,9.622,-0.151,0.192,0.043
2.391,0.856,9.446,-0.136,0.197,0.047

2.402,-0.191,9.563,-0.19,0.209,0.081
2.438,-0.224,9.601,-0.193,0.212,0.077
2.401,-0.236,9.676,-0.201,0.211,0.072
2.379,-0.181,9.657,-0.207,0.215,0.069
2.352,-0.17,9.585,-0.206,0.217,0.072
2.377,-0.235,9.611,-0.211,0.223,0.076
2.365,-0.293,9.602,-0.223,0.222,0.072
2.399,-0.317,9.724,-0.224,0.22,0.074
2.364,-0.283,9.674,-0.224,0.219,0.074
2.389,-0.244,9.552,-0.222,0.217,0.074
2.356,-0.243,9.335,-0.23,0.22,0.075
2.36,-0.367,9.04,-0.255,0.237,0.085
2.279,-0.374,8.679,-0.262,0.3,0.097
2.125,-0.488,8.532,-0.31,0.4,0.12
2.246,-0.276,8.777,-0.389,0.495,0.136
2.426,0.056,9.08,-0.425,0.561,0.19
2.544,-0.097,9.444,-0.397,0.59,0.232
2.481,-0.06,9.838,-0.395,0.591,0.19
2.246,-0.627,9.893,-0.495,0.583,0.136
1.953,-1.404,9.903,-0.722,0.68,0.096
2.53,-1.132,10.446,-1.04,0.794,0.146
3.046,0.414,11.175,-1.095,0.789,0.344
2.73,0.57,11.378,-0.817,0.678,0.403
2.294,-0.563,10.834,-0.51,0.561,0.201
2.044,-1.009,10.136,-0.373,0.476,0.01
1.937,-1.222,9.45,-0.264,0.413,0
2.015,-0.598,9.473,-0.249,0.347,0.039
2.023,-0.563,10.116,-0.359,0.278,0.118
2.045,-0.742,10.564,-0.586,0.248,0.119
2.096,-0.286,10.604,-0.718,0.227,0.096
2.035,-0.101,10.933,-0.808,0.2,0.074
1.971,-0.327,11.368,-0.893,0.187,0.086
1.541,-1.565,12.508,-1.114,0.146,0.116
1.73,-1.48,11.23,-1.395,-0.122,0.2
1.871,1.79,2.524,-0.954,-0.445,0.375
3.577,1.661,6.128,0.524,0.028,0.21
3.286,-1.357,10.242,1.878,-0.402,-0.231
2.794,1.58,10.054,3.707,0.029,-0.213
1.567,4.079,4.83,4.851,0.77,0.186
0.732,-5.054,6.241,4.515,1.39,0.47
2.325,-15.312,10.118,1.518,1.458,-0.056
4.463,-10.004,11.618,-2.012,1.59,-0.614
-1.805,5.188,17.231,-4.182,1.386,-0.069
-5.893,20.08,19.426,-3.471,0.704,1.171
0.658,11.104,5.934,-0.486,0.957,1.341
5.667,0.063,9.473,1.976,0.146,-0.044
3.371,-3.012,9.607,2.451,-0.304,-0.523
0.464,-4.538,7.072,1.949,-0.295,-0.23
0.421,-6.196,7.836,0.77,-0.13,0.349
1.597,-3.162,8.434,-0.693,-0.017,0.495
2.395,0.346,7.564,-1.425,0.051,0.438
1.796,-0.033,7.52,-1.316,0.055,0.302
1.226,-1.146,7.459,-0.652,0.071,0.137
1.383,-1.238,8.822,-0.15,0.092,0.114
1.863,-0.432,11.127,-0.09,-0.02,0.052
1.496,0.019,12.892,-0.349,-0.178,-0.102
0.909,1.292,11.281,-0.704,-0.292,-0.147
1.088,2.175,11.828,-1.093,-0.373,0.065
2.032,3.021,10.851,-1.201,-0.543,0.196
2.102,1.101,9.076,-1.056,-0.581,0.166
2.522,-0.554,8.557,-0.417,-0.437,-0.134
2.449,-2.525,8.012,-0.409,-0.343,-0.436
2.168,-2.109,8.302,-0.61,-0.283,-0.438
2.831,0.35,8.781,-0.347,-0.248,-0.11
2.749,0.879,9.036,0.098,-0.156,0.2
2.415,-0.132,9.372,0.266,-0.103,0.156
2.15,-0.908,9.771,0.197,-0.053,0.025
2.129,-1.084,10.045,0.018,0.003,0.009
2.027,-0.665,10.207,-0.146,0.059,0.07
2.056,0.151,10.453,-0.235,0.087,0.133
2.182,0.847,10.483,-0.226,0.076,0.147
2.439,1.138,10.219,-0.208,0.061,0.143
2.538,1.079,9.875,-0.229,0.063,0.145
2.459,0.842,9.647,-0.264,0.079,0.123
2.487,0.488,9.618,-0.26,0.101,0.082
2.4,-0.046,9.406,-0.171,0.113,0.036
2.269,-0.484,9.359,-0.075,0.124,-0.015
2.28,-0.58,9.494,-0.032,0.123,-0.038
2.329,-0.452,9.709,-0.009,0.106,-0.021
2.264,-0.333,9.911,-0.01,0.094,0.012
2.172,-0.226,9.987,-0.022,0.079,0.034
2.182,-0.066,10.029,-0.048,0.078,0.065
2.205,0.036,9.953,-0.087,0.085,0.101
2.183,0.061,9.413,-0.105,0.091,0.125
2.166,0.033,9.084,-0.146,0.147,0.146
2.167,-0.077,9.147,-0.18,0.186,0.159
2.283,-0.219,9.533,-0.205,0.193,0.146
2.332,-0.357,9.808,-0.21,0.176,0.102
2.311,-0.363,9.909,-0.204,0.165,0.044
2.385,-0.205,10.02,-0.199,0.157,0.007
2.421,-0.088,10.033,-0.184,0.146,0.004
2.445,-0.014,9.924,-0.159,0.13,0.012
2.412,0.022,9.528,-0.125,0.127,0.022
2.386,0.047,9.143,-0.088,0.152,0.047
2.403,-0.107,9.132,-0.087,0.181,0.081
2.45,-0.191,9.307,-0.113,0.187,0.093
2.461,-0.12,9.471,-0.163,0.183,0.093
2.469,-0.031,9.656,-0.212,0.183,0.09
2.502,0.106,9.767,-0.235,0.185,0.078
2.482,0.165,9.785,-0.233,0.177,0.062
2.475,0.148,9.809,-0.214,0.169,0.05
2.506,0.09,9.793,-0.188,0.156,0.033
2.469,0.098,9.636,-0.159,0.145,0.023
2.438,0.168,9.511,-0.136,0.146,0.041

2.539,0.018,9.63,-0.206,0.212,0.092
2.542,0.041,9.643,-0.208,0.214,0.092
2.535,0.041,9.641,-0.206,0.211,0.096
2.532,0.061,9.612,-0.201,0.206,0.095
2.551,0.079,9.599,-0.208,0.213,0.091
2.53,0.099,9.618,-0.215,0.212,0.088
2.505,0.123,9.616,-0.214,0.202,0.085
2.511,0.139,9.629,-0.207,0.196,0.081
2.525,0.118,9.623,-0.207,0.199,0.078
2.505,0.138,9.598,-0.21,0.198,0.075
2.512,0.154,9.579,-0.214,0.197,0.076
2.524,0.105,9.58,-0.208,0.195,0.074
2.531,0.091,9.582,-0.206,0.194,0.069
2.527,0.092,9.568,-0.206,0.191,0.069
2.539,0.085,9.565,-0.205,0.191,0.072
2.548,0.082,9.552,-0.209,0.198,0.073
2.546,0.049,9.551,-0.209,0.206,0.072
2.544,0.076,9.571,-0.212,0.212,0.074
2.525,0.086,9.549,-0.211,0.214,0.077
2.538,0.092,9.564,-0.206,0.215,0.078
2.527,0.07,9.555,-0.205,0.216,0.076
2.537,0.091,9.552,-0.21,0.217,0.075
2.54,0.117,9.515,-0.211,0.217,0.078
2.553,0.122,9.498,-0.207,0.218,0.078
2.535,0.116,9.482,-0.198,0.215,0.079
2.543,0.089,9.389,-0.201,0.217,0.08
2.537,0.087,9.324,-0.215,0.224,0.079
2.522,0.075,9.188,-0.232,0.228,0.08
2.474,0.021,9.032,-0.272,0.235,0.09
2.483,-0.158,8.607,-0.341,0.255,0.106
2.263,-0.509,8.184,-0.382,0.331,0.145
1.325,-0.647,7.898,-0.476,0.54,0.223
1.74,0.1,8.45,-0.795,0.825,0.314
2.72,0.295,9.882,-0.882,0.986,0.489
3.315,0.51,10.839,-1.035,1.047,0.602
3.464,0.83,11.563,-1.174,0.951,0.529
3.609,-0.012,11.577,-0.96,0.738,0.401
3.137,-1.407,11.892,-0.846,0.58,0.233
2.528,0.202,12.049,-0.849,0.446,0.203
2.303,1.118,11.167,-0.473,0.264,0.355
2.368,0.42,9.865,0.039,0.168,0.255
2.188,-0.05,9.103,0.255,0.159,0.072
1.97,-1.231,9.959,-0.15,0.196,-0.065
1.258,-2.006,12.947,-1.151,0.184,-0.223
1.577,-2.483,12.484,-1.971,-0.076,0.022
2.294,-1.169,7.782,-2.146,-0.43,0.402
4.278,3.817,4.225,-0.925,-0.225,0.336
4.661,2.943,10.534,1.09,-0.472,0.178
1.92,5.123,6.958,3.965,-0.011,0.152
-0.161,0.99,4.059,4.888,0.913,0.327
1.739,-8.4,4.088,3.744,1.639,0.147
4.685,-14.722,10.843,0.214,1.642,-0.466
3.769,-4.879,17.293,-1.886,1.685,-0.632
-4.282,10.382,19.395,-2.528,1.065,0.655
-5.838,16.786,12.752,-2.421,0.53,1.788
3.797,5.833,3.666,-0.264,0.634,0.847
6.456,1.496,10.391,1.324,-0.143,-0.151
1.949,-1.62,8.281,2.438,-0.39,-0.061
-0.345,-7.95,6.388,2.054,-0.344,0.155
0.77,-7.536,7.12,0.355,-0.169,0.243
2.325,-2.067,6.676,-1.334,0.048,0.401
2.337,0.193,7.01,-1.803,0.173,0.501
1.526,-0.992,7.855,-1.384,0.199,0.378
1.467,-1.981,8.833,-0.922,0.204,0.141
1.947,-1.046,10.708,-0.727,0.124,-0.032
1.849,0.267,12.705,-0.567,-0.082,-0.083
1.271,1.001,13.222,-0.547,-0.261,-0.003
1.406,1.601,11.712,-0.712,-0.477,0.163
2.238,2.96,10.865,-0.938,-0.657,0.178
3.12,2.062,9.99,-0.815,-0.872,0.035
3.577,-1.734,8.403,-0.28,-0.753,-0.233
2.931,-5.107,7.031,-0.182,-0.484,-0.642
2.121,-3.464,6.267,-0.451,-0.075,-0.792
0.226,-0.004,6.443,-0.544,0.235,-0.377
0.746,0.266,7.102,-0.602,0.079,-0.017
3.779,0.216,8.212,-0.215,-0.103,0.014
3.561,-0.412,9.419,0.053,0.032,-0.024
2.12,-0.353,10.512,-0.197,0.153,-0.05
1.898,0.399,11.104,-0.559,0.239,0.039
2.419,0.989,11.324,-0.766,0.256,0.096
2.697,1.119,11.139,-0.755,0.236,0.099
2.796,1.225,10.765,-0.577,0.194,0.077
2.829,1.454,10.18,-0.288,0.152,0.061
2.833,1.211,9.7,-0.053,0.147,0.054
2.875,0.595,9.736,0.038,0.147,0.039
2.833,-0.112,9.904,0.06,0.126,0.005
2.617,-0.675,9.915,0.049,0.115,-0.03
2.436,-1.067,9.929,0.018,0.107,-0.044
2.391,-1.076,9.862,-0.027,0.097,-0.039
2.409,-0.746,9.902,-0.069,0.077,0.01
2.399,-0.417,9.942,-0.082,0.05,0.083
2.336,-0.236,9.929,-0.068,0.045,0.136
2.301,-0.193,9.819,-0.06,0.045,0.158
2.263,-0.128,9.442,-0.037,0.059,0.168
2.245,-0.292,9.219,-0.053,0.112,0.175
2.28,-0.532,9.271,-0.106,0.159,0.159
2.32,-0.768,9.437,-0.177,0.17,0.123
2.332,-0.869,9.678,-0.236,0.169,0.071
2.352,-0.786,9.901,-0.27,0.163,0.027
2.371,-0.516,9.937,-0.254,0.15,0.013
2.443,-0.259,9.864,-0.203,0.146,0.021
2.497,-0.119,9.754,-0.143,0.137,0.036
2.496,-0.128,9.635,-0.101,0.135,0.046
2.411,-0.217,9.286,-0.067,0.144,0.057

2.543,0.032,9.561,-0.206,0.214,0.071
2.563,0.032,9.614,-0.201,0.204,0.076
2.566,0.072,9.607,-0.199,0.205,0.083
2.564,0.056,9.583,-0.194,0.207,0.092
2.55,-0.002,9.536,-0.192,0.203,0.098
2.556,-0.027,9.522,-0.191,0.203,0.098
2.547,-0.044,9.505,-0.194,0.202,0.096
2.547,-0.037,9.488,-0.198,0.205,0.093
2.559,-0.037,9.507,-0.203,0.214,0.089
2.535,-0.044,9.562,-0.197,0.217,0.085
2.543,-0.038,9.602,-0.19,0.214,0.082
2.529,-0.027,9.642,-0.186,0.212,0.085
2.53,-0.04,9.66,-0.191,0.217,0.087
2.524,-0.034,9.605,-0.19,0.214,0.087
2.528,-0.011,9.596,-0.19,0.213,0.091
2.529,-0.045,9.599,-0.191,0.207,0.092
2.547,-0.054,9.636,-0.198,0.21,0.086
2.532,-0.036,9.643,-0.202,0.214,0.085
2.542,-0.035,9.632,-0.198,0.213,0.086
2.538,-0.039,9.646,-0.2,0.221,0.084
2.525,-0.066,9.615,-0.203,0.219,0.084
2.532,-0.077,9.536,-0.207,0.22,0.084
2.478,-0.06,9.3,-0.218,0.224,0.085
2.439,-0.098,8.884,-0.246,0.232,0.097
2.337,-0.147,8.456,-0.333,0.277,0.118
2.362,-0.23,8.023,-0.454,0.343,0.16
1.921,0.021,7.477,-0.398,0.535,0.267
1.908,-0.323,8.146,-0.453,0.715,0.315
2.156,-0.641,9.994,-0.656,0.808,0.279
2.928,-1.374,11.341,-0.825,0.842,0.263
3.191,-0.203,11.614,-0.941,0.806,0.303
3.169,0.65,11.259,-0.973,0.728,0.363
3.052,0.45,11.028,-1.013,0.704,0.352
2.745,0.801,11.563,-0.937,0.605,0.344
2.312,0.6,11.864,-0.498,0.388,0.376
2.486,0.038,11.443,0.061,0.179,0.344
2.453,-0.451,10.506,0.307,0.058,0.187
2.038,-1.124,9.057,0.25,0.05,0.002
1.975,-1.653,8.587,-0.126,0.113,-0.073
1.936,-0.999,9.928,-0.774,0.197,-0.052
1.221,-1.865,12.797,-1.708,0.175,-0.065
1.715,-1.156,10.108,-2.324,-0.109,0.14
2.842,1.787,2.75,-1.779,-0.069,0.361
3.623,1.479,7.286,-0.35,0.037,0.301
3.314,0.939,12.81,1.147,-0.215,0.107
3.563,3.403,11.945,3.497,0.223,0.083
1.023,0.279,5.022,4.797,0.811,0.066
1.733,-9.633,5.107,3.353,1.502,-0.163
4.389,-12.775,9.707,0.458,1.719,-0.75
2.193,-3.948,7.902,-1.578,1.962,-0.459
-6.101,9.676,19.398,-3.024,1.402,0.661
-4.327,15.158,11.393,-1.827,0.982,1.335
4.986,4.456,6.736,0.269,0.766,0.517
5.014,1.256,10.797,1.559,0,-0.266
1.2,-0.845,7.764,2.075,-0.232,-0.123
0.294,-5.705,6.359,1.695,-0.163,0.164
1.192,-5.209,8.349,0.327,-0.031,0.291
1.994,-0.981,7.831,-0.957,0.083,0.376
1.788,0.21,7.852,-1.359,0.127,0.362
1.136,-1.156,8.501,-1.072,0.108,0.251
0.913,-2.474,9.489,-0.624,0.081,0.118
1.515,-1.603,10.344,-0.365,-0.025,0.038
1.975,0.768,11.309,-0.495,-0.212,-0.058
1.643,2.188,11.736,-0.843,-0.346,-0.085
1.393,2.385,11.357,-0.979,-0.457,0.106
2.372,0.901,10.642,-1.143,-0.653,0.173
2.895,0.319,8.584,-0.72,-0.699,-0.098
3.046,-2.989,8.417,-0.841,-0.673,-0.415
1.749,-1.592,8.814,-1.324,-0.56,-0.61
2.507,0.891,7.956,-1.022,-0.228,-0.154
1.659,0.915,8.527,-0.64,0.004,0.205
1.048,-1.055,8.68,-0.45,-0.159,0.088
3.005,-1.181,8.955,-0.059,-0.29,-0.063
3.197,-1.446,9.793,0.079,-0.153,-0.11
2.224,-0.95,10.466,-0.227,0.029,-0.096
1.958,0.06,10.764,-0.399,0.143,-0.002
2.336,0.844,10.636,-0.428,0.186,0.084
2.618,1.368,10.282,-0.373,0.181,0.143
2.652,1.422,9.671,-0.292,0.189,0.178
2.69,1.114,9.309,-0.22,0.175,0.214
2.571,0.511,9.204,-0.173,0.183,0.191
2.524,-0.12,9.138,-0.128,0.217,0.109
2.597,-0.575,9.298,-0.085,0.232,0.029
2.585,-0.857,9.682,-0.053,0.209,-0.007
2.457,-0.857,10.11,-0.048,0.159,-0.024
2.401,-0.656,10.396,-0.06,0.106,-0.02
2.343,-0.378,10.514,-0.071,0.076,-0.006
2.383,-0.363,10.33,-0.068,0.048,0.026
2.317,-0.153,9.686,-0.027,0.033,0.098
2.211,0.128,8.951,0.034,0.079,0.161
2.235,-0.164,8.911,0.027,0.148,0.221
2.334,-0.849,9.296,-0.069,0.167,0.193
2.354,-1.144,9.738,-0.186,0.152,0.111
2.269,-1.212,9.987,-0.237,0.139,0.032
2.244,-0.952,10.046,-0.223,0.132,-0.022
2.365,-0.605,10.031,-0.205,0.128,-0.025
2.423,-0.36,9.994,-0.174,0.116,-0.001
2.427,-0.102,9.82,-0.119,0.111,0.019
2.38,-0.005,9.62,-0.06,0.114,0.057
2.367,-0.235,9.414,-0.028,0.132,0.09
2.347,-0.284,9.198,-0.024,0.17,0.098
2.332,-0.486,9.131,-0.051,0.201,0.101
2.353,-0.682,9.258,-0.123,0.218,0.085
2.395,-0.62,9.581,-0.211,0.218,0.065

2.509,-0.127,9.635,-0.2,0.21,0.085
2.511,-0.127,9.645,-0.206,0.21,0.081
2.517,-0.101,9.67,-0.203,0.202,0.079
2.524,-0.091,9.621,-0.201,0.205,0.079
2.513,-0.125,9.561,-0.189,0.198,0.084
2.468,-0.138,9.564,-0.19,0.187,0.088
2.503,-0.11,9.549,-0.201,0.196,0.084
2.512,-0.088,9.533,-0.205,0.209,0.08
2.502,-0.098,9.569,-0.203,0.209,0.078
2.515,-0.142,9.625,-0.205,0.205,0.075
2.498,-0.132,9.653,-0.208,0.202,0.07
2.513,-0.114,9.654,-0.208,0.207,0.074
2.502,-0.142,9.64,-0.203,0.203,0.08
2.528,-0.151,9.663,-0.202,0.207,0.085
2.517,-0.185,9.663,-0.203,0.207,0.086
2.498,-0.223,9.602,-0.209,0.207,0.084
2.502,-0.246,9.592,-0.224,0.206,0.086
2.507,-0.246,9.638,-0.238,0.209,0.088
2.511,-0.213,9.641,-0.246,0.216,0.088
2.493,-0.175,9.567,-0.247,0.22,0.09
2.46,-0.217,9.47,-0.263,0.226,0.092
2.438,-0.272,9.254,-0.303,0.233,0.091
2.396,-0.436,9.19,-0.341,0.244,0.104
2.475,-0.93,9.109,-0.383,0.254,0.13
2.011,-0.904,8.329,-0.391,0.372,0.155
1.342,-0.452,8.766,-0.628,0.602,0.185
1.56,-1.042,9.918,-1.018,0.83,0.28
2.382,0.265,10.583,-1.311,1.028,0.358
3.565,2.528,10.442,-1.343,1.048,0.432
3.675,1.19,10.39,-0.827,0.925,0.422
3.051,-2.316,11.511,-0.518,0.758,0.105
2.413,-2.366,12.159,-0.73,0.569,-0.083
1.913,-0.769,11.214,-0.81,0.41,0.153
1.942,0.334,9.484,-0.502,0.328,0.347
2.336,0.305,8.752,-0.187,0.324,0.25
2.087,-0.817,8.969,-0.087,0.317,0.055
1.906,-0.895,9.208,-0.29,0.307,-0.025
2.008,-0.567,10.595,-0.76,0.33,-0.02
1.485,-1.265,12.857,-1.37,0.318,-0.038
1.738,-1.856,11.417,-1.942,0.04,0.159
2.605,-1.76,8.199,-2.186,-0.505,0.443
4.144,4.361,2.604,-1.189,-0.281,0.327
3.78,-0.255,10.275,0.206,-0.18,0.148
1.561,0.297,11.266,2.74,-0.13,0.02
0.204,-0.455,3.509,4.771,0.651,0.169
0.485,-5.667,3.81,4.201,1.318,0.074
2.787,-12.667,9.558,0.602,1.427,-0.23
5.304,-8.044,17.122,-2.441,1.366,-0.264
1.387,5.978,18.63,-2.917,1.446,0.416
-5.687,19.705,19.44,-1.496,0.804,1.321
-0.99,9.142,7.139,0.474,0.612,1.268
5.258,-0.809,8.414,2.43,-0.118,-0.377
3.35,-2.738,9.511,2.774,-0.533,-0.642
0.208,-4.851,6.052,2.258,-0.455,-0.101
0.582,-7.389,5.657,0.953,-0.194,0.475
2.221,-3.54,7.4,-0.81,-0.032,0.569
2.415,0.684,7.903,-1.727,0.05,0.507
1.544,-0.402,8.139,-1.474,0.111,0.421
1.315,-2.316,9.197,-0.837,0.122,0.236
1.858,-1.231,9.85,-0.463,0.087,0.073
2.046,0.062,11.208,-0.501,-0.08,-0.069
1.286,0.661,11.808,-0.472,-0.212,-0.129
1.513,0.736,11.261,-0.687,-0.364,0.02
1.559,1.994,10.202,-1.017,-0.473,0.125
2.57,0.323,10.013,-1.154,-0.513,0.116
2.821,-2.48,8.502,-1.023,-0.431,-0.223
2.821,-3.604,6.893,-0.622,-0.171,-0.549
2.616,-3.94,7.221,-0.737,-0.009,-0.671
2.09,-1.185,7.449,-1.012,0.073,-0.444
1.047,1.129,8.349,-0.926,0.228,0.06
0.864,0.649,9.168,-0.832,0.204,0.216
2.952,-0.096,9.942,-0.644,0.093,0.147
3.653,-0.596,10.291,-0.377,0.085,0.14
2.643,-0.395,10.449,-0.402,0.145,0.176
2.141,0.263,10.539,-0.485,0.201,0.213
2.469,0.596,10.414,-0.389,0.215,0.174
2.796,0.569,10.233,-0.211,0.172,0.084
2.79,0.405,9.948,-0.04,0.137,0.011
2.69,-0.054,9.854,0.042,0.126,-0.034
2.569,-0.545,9.916,0.054,0.131,-0.075
2.546,-0.826,10.191,0.048,0.122,-0.104
2.565,-1.048,10.409,0.026,0.081,-0.112
2.482,-1.093,10.419,0.015,0.034,-0.098
2.407,-0.94,10.356,-0.017,0.002,-0.054
2.336,-0.703,10.179,-0.046,-0.015,0.024
2.339,-0.428,9.905,-0.054,-0.018,0.103
2.256,-0.217,9.499,-0.044,0.007,0.149
2.329,-0.553,9.394,-0.069,0.045,0.185
2.254,-0.996,9.524,-0.102,0.067,0.182
2.125,-1.025,9.505,-0.126,0.075,0.092
2.122,-0.924,9.477,-0.15,0.115,0.057
2.206,-0.876,9.492,-0.145,0.139,0.071
2.239,-0.895,9.696,-0.141,0.146,0.06
2.26,-0.825,9.732,-0.152,0.141,0.036
2.287,-0.755,9.676,-0.139,0.143,0.024
2.278,-0.711,9.388,-0.12,0.156,0.022
2.299,-0.743,9.26,-0.107,0.183,0.025
2.317,-0.812,9.266,-0.088,0.199,0.041
2.314,-0.907,9.356,-0.079,0.201,0.052
2.331,-0.77,9.378,-0.097,0.2,0.061
2.337,-0.667,9.336,-0.139,0.21,0.069
2.356,-0.562,9.437,-0.175,0.222,0.067
2.412,-0.449,9.503,-0.183,0.221,0.057
2.436,-0.239,9.489,-0.164,0.225,0.047

2.514,-0.343,9.579,-0.214,0.193,0.079
2.528,-0.349,9.581,-0.212,0.197,0.085
2.526,-0.353,9.572,-0.206,0.196,0.091
2.503,-0.332,9.533,-0.208,0.2,0.091
2.492,-0.349,9.517,-0.209,0.205,0.092
2.504,-0.338,9.536,-0.219,0.212,0.09
2.458,-0.345,9.486,-0.219,0.211,0.087
2.45,-0.355,9.453,-0.22,0.22,0.086
2.492,-0.375,9.535,-0.217,0.22,0.084
2.502,-0.364,9.587,-0.215,0.22,0.085
2.488,-0.363,9.614,-0.212,0.223,0.084
2.487,-0.337,9.596,-0.208,0.221,0.081
2.466,-0.291,9.511,-0.211,0.222,0.081
2.486,-0.323,9.499,-0.215,0.221,0.082
2.483,-0.335,9.499,-0.211,0.222,0.082
2.456,-0.334,9.511,-0.21,0.222,0.08
2.473,-0.344,9.479,-0.212,0.218,0.08
2.429,-0.312,9.326,-0.231,0.224,0.083
2.454,-0.417,9.309,-0.274,0.231,0.089
2.444,-0.543,9.349,-0.298,0.236,0.092
2.464,-0.673,9.192,-0.313,0.246,0.103
2.215,-0.579,9.001,-0.307,0.285,0.13
1.403,-0.984,8.991,-0.442,0.383,0.138
1.488,-1.697,9.093,-0.626,0.593,0.098
2.034,-1.226,9.079,-0.712,0.796,0.121
2.704,0.442,8.805,-0.888,0.992,0.39
3.268,2.345,8.984,-0.83,1.089,0.702
3.664,1.582,9.592,-0.505,0.994,0.74
3.119,-1.246,11.07,-0.148,0.787,0.417
2.141,-3.703,12.982,-0.203,0.568,0.025
2.238,-1.319,13.421,-0.546,0.409,0.01
2.465,0.658,11.803,-0.394,0.259,0.296
2.392,0.638,10.09,-0.028,0.191,0.266
1.998,-0.403,8.946,0.195,0.171,0.083
1.912,-1.106,8.663,0.188,0.174,0.038
2.225,-0.517,9.313,-0.116,0.156,0.074
2.162,-0.338,11.288,-0.733,0.125,-0.07
1.497,-1.406,12.859,-1.413,0.068,-0.26
1.453,-2.089,11.484,-1.998,-0.067,-0.103
2.048,-1.144,8.529,-1.953,-0.324,0.215
3.34,1.242,5.07,-0.614,-0.386,0.234
5.33,1.244,10.895,0.972,-0.327,-0.024
2.838,3.262,6.91,3.04,-0.028,-0.276
-0.641,0.009,0.966,4.838,0.925,0.054
0.635,-6.452,5.771,4.523,1.664,0.166
4.364,-11.757,15.864,1.267,1.463,-0.237
3.248,-9.745,16.672,-2.196,1.268,-0.489
-4.048,6.619,19.378,-3.928,1.162,-0.189
-4.759,19.578,11.94,-2.813,0.725,1.146
3.956,10.014,4.907,-0.44,0.741,1.176
5.46,1.272,7.119,2.441,-0.047,-0.029
2.159,-3.819,8.772,3.305,-0.397,-0.522
-0.424,-7.53,7.053,2.315,-0.386,-0.278
0.691,-7.066,6.976,0.39,-0.082,0.185
2.683,-1.276,7.743,-1.118,0.105,0.516
2.652,1.651,7.281,-1.579,0.126,0.519
1.632,-0.587,7.54,-1.247,0.101,0.234
1.107,-2.817,8.35,-0.652,0.106,-0.028
1.268,-2.369,10.165,-0.313,0.085,-0.046
1.842,-0.155,11.671,-0.266,-0.083,-0.044
1.731,1.684,11.586,-0.408,-0.229,-0.077
1.404,1.85,11.183,-0.728,-0.31,-0.021
1.534,1.514,10.87,-0.972,-0.459,0.049
1.991,1.364,9.946,-1.023,-0.562,0.091
2.863,1.453,10.351,-0.926,-0.599,0.052
3.369,-1.441,8.956,-0.61,-0.511,-0.037
2.871,-2.442,7.046,-0.119,-0.263,-0.426
2.903,-2.44,6.996,-0.19,-0.103,-0.552
2.133,-0.993,8.105,-0.643,-0.008,-0.356
1.087,0.802,9.109,-0.803,0.009,-0.023
2.195,0.868,9.568,-0.817,-0.048,0.123
3.548,0.664,9.706,-0.526,0.015,0.14
3.266,-0.029,10.113,-0.374,0.078,0.103
2.571,-0.013,10.541,-0.402,0.116,0.069
2.485,0.3,10.534,-0.374,0.145,0.109
2.643,0.543,10.316,-0.239,0.147,0.143
2.703,0.653,10.145,-0.128,0.146,0.126
2.735,0.462,9.884,-0.051,0.14,0.067
2.725,0.133,9.766,-0.004,0.121,0.018
2.647,-0.263,9.777,-0.012,0.111,-0.028
2.57,-0.555,9.759,-0.039,0.099,-0.062
2.481,-0.668,9.606,-0.053,0.096,-0.074
2.493,-0.696,9.53,-0.083,0.093,-0.021
2.407,-0.584,9.633,-0.11,0.086,0.071
2.326,-0.526,9.755,-0.12,0.08,0.135
2.306,-0.678,9.814,-0.119,0.079,0.148
2.262,-0.646,9.894,-0.135,0.084,0.132
2.28,-0.545,10.012,-0.161,0.088,0.13
2.3,-0.36,9.748,-0.166,0.097,0.127
2.312,-0.419,9.46,-0.168,0.122,0.127
2.312,-0.626,9.338,-0.175,0.141,0.106
2.299,-0.739,9.308,-0.18,0.165,0.074
2.321,-0.718,9.249,-0.184,0.19,0.054
2.37,-0.651,9.249,-0.18,0.217,0.045
2.459,-0.661,9.603,-0.181,0.216,0.046
2.433,-0.677,9.86,-0.176,0.196,0.037
2.388,-0.668,9.958,-0.169,0.181,0.031
2.372,-0.603,9.81,-0.161,0.178,0.023
2.38,-0.393,9.593,-0.162,0.187,0.03
2.384,-0.172,9.531,-0.162,0.194,0.056
2.413,-0.104,9.445,-0.15,0.196,0.074
2.39,-0.14,9.304,-0.141,0.195,0.084
2.399,-0.184,9.237,-0.166,0.213,0.08
2.45,-0.297,9.361,-0.203,0.229,0.058

2.525,-0.241,9.584,-0.2,0.207,0.083
2.507,-0.237,9.557,-0.201,0.208,0.082
2.508,-0.235,9.543,-0.205,0.207,0.083
2.522,-0.228,9.547,-0.21,0.214,0.082
2.517,-0.216,9.592,-0.209,0.208,0.082
2.528,-0.206,9.595,-0.213,0.21,0.082
2.526,-0.216,9.586,-0.212,0.209,0.083
2.527,-0.198,9.571,-0.21,0.214,0.083
2.511,-0.199,9.53,-0.202,0.213,0.084
2.516,-0.222,9.525,-0.206,0.219,0.082
2.517,-0.219,9.566,-0.211,0.221,0.082
2.505,-0.252,9.573,-0.208,0.218,0.086
2.525,-0.252,9.556,-0.205,0.211,0.087
2.514,-0.187,9.527,-0.21,0.215,0.089
2.493,-0.195,9.538,-0.212,0.218,0.092
2.501,-0.226,9.459,-0.222,0.22,0.092
2.493,-0.302,9.46,-0.258,0.231,0.09
2.471,-0.297,9.546,-0.291,0.232,0.098
2.561,-0.258,9.703,-0.293,0.231,0.114
2.616,-0.226,9.753,-0.273,0.226,0.136
2.527,-0.101,9.694,-0.24,0.22,0.142
2.537,-0.045,9.635,-0.247,0.232,0.111
2.489,-0.241,9.442,-0.264,0.242,0.076
2.471,-0.468,9.083,-0.279,0.258,0.057
2.387,-0.587,8.919,-0.308,0.278,0.072
2.234,-0.698,8.625,-0.353,0.333,0.104
1.945,-0.844,8.306,-0.403,0.459,0.141
1.939,-0.538,9.032,-0.491,0.61,0.239
2.275,-0.726,10.095,-0.716,0.7,0.392
3.029,-0.294,10.683,-0.991,0.722,0.461
3.317,0.915,10.204,-0.992,0.673,0.441
2.837,-0.028,9.863,-0.748,0.628,0.392
2.82,-2.009,10.193,-0.571,0.579,0.233
2.291,-1.555,11.567,-0.567,0.475,0.111
2.054,-0.721,11.976,-0.391,0.325,0.216
2.264,-0.177,11.577,-0.125,0.248,0.273
2.257,0.11,10.228,-0.002,0.215,0.129
1.956,-0.155,8.767,-0.069,0.206,-0.015
1.932,0.082,8.248,-0.329,0.27,-0.041
1.704,-0.182,10.789,-0.876,0.359,-0.026
1.332,-2.605,13.083,-1.613,0.182,-0.076
1.976,-1.068,8.813,-1.739,-0.225,0.095
3.527,3.27,2.589,-0.77,-0.016,0.269
4.89,0.518,10.841,1.024,-0.189,0.15
2.925,2.989,12.194,3.104,-0.263,-0.025
1.468,1.404,7.934,4.776,0.401,0.076
0.471,-6.154,7.465,4.18,1.018,0.027
2.844,-11.993,8.441,1.316,1.409,-0.392
5.288,-8.616,10.915,-1.061,1.669,-0.502
0.275,6.35,11.493,-1.693,1.596,0.195
-5.215,13.014,19.41,-2.669,0.593,1.157
-1.143,11.782,7.847,-0.515,0.515,1.056
5.229,1.861,8.739,1.095,0.064,-0.026
3.888,-1.076,8.953,2.074,-0.373,-0.347
1.393,-3.844,6.977,2.35,-0.386,0.014
0.861,-6.684,6.506,1.388,-0.287,0.277
1.676,-5.126,6.746,-0.398,-0.116,0.255
2.043,-1.94,7.145,-1.618,0.014,0.287
1.523,-0.961,7.946,-1.845,0.098,0.328
1.561,-0.621,8.863,-1.458,0.12,0.238
1.873,0.091,10.476,-1.061,0.069,0.126
2.039,1.105,12.032,-0.836,-0.102,0.002
1.682,1.607,12.098,-0.733,-0.283,-0.054
1.755,1.425,10.895,-0.731,-0.443,-0.003
2.052,2.152,10.239,-0.693,-0.573,0.109
2.678,1.585,10.225,-0.704,-0.675,0.161
2.928,-0.573,8.309,-0.555,-0.572,0.065
2.503,-2.047,6.877,-0.297,-0.291,-0.197
2.719,-3.249,6.888,-0.308,-0.051,-0.452
1.326,-2.869,7.919,-0.597,0.002,-0.482
1.761,-1.121,8.488,-0.817,-0.135,-0.306
3.333,0.727,8.702,-0.685,-0.09,-0.019
3.371,1.062,9.028,-0.457,0.078,0.177
2.697,0.763,9.462,-0.453,0.209,0.198
2.604,0.591,10.145,-0.511,0.248,0.183
2.546,0.358,10.423,-0.526,0.228,0.156
2.391,0.2,10.459,-0.425,0.236,0.098
2.481,0.341,10.336,-0.253,0.244,0.039
2.742,0.501,10.195,-0.103,0.224,0.015
2.887,0.53,10.047,0,0.183,-0.003
2.89,0.255,10.211,0.029,0.147,-0.035
2.716,0.003,10.121,0.03,0.121,-0.074
2.764,-0.294,9.981,-0.004,0.111,-0.088
2.673,-0.474,9.737,-0.026,0.104,-0.051
2.492,-0.73,9.697,-0.05,0.103,-0.009
2.412,-0.941,9.806,-0.066,0.093,0.018
2.391,-0.815,9.801,-0.092,0.072,0.051
2.339,-0.476,9.698,-0.136,0.082,0.105
2.347,-0.224,9.767,-0.161,0.098,0.158
2.365,-0.152,9.758,-0.155,0.125,0.18
2.401,-0.216,9.694,-0.122,0.147,0.156
2.406,-0.436,9.596,-0.126,0.167,0.124
2.399,-0.691,9.635,-0.172,0.184,0.09
2.414,-0.773,9.746,-0.218,0.181,0.053
2.45,-0.695,9.718,-0.231,0.174,0.029
2.46,-0.618,9.548,-0.199,0.179,0.024
2.467,-0.615,9.46,-0.176,0.19,0.021
2.484,-0.569,9.452,-0.16,0.199,0.021
2.485,-0.424,9.469,-0.153,0.206,0.033
2.462,-0.265,9.491,-0.143,0.214,0.06
2.43,-0.34,9.452,-0.127,0.214,0.085
2.433,-0.308,9.407,-0.145,0.219,0.079
2.473,-0.189,9.41,-0.182,0.228,0.081
2.538,-0.142,9.489,-0.218,0.235,0.079

2.568,-0.114,9.557,-0.194,0.206,0.085
2.551,-0.127,9.574,-0.197,0.207,0.083
2.555,-0.137,9.603,-0.202,0.205,0.085
2.551,-0.098,9.619,-0.209,0.207,0.086
2.54,-0.064,9.629,-0.213,0.211,0.089
2.54,-0.045,9.613,-0.209,0.208,0.092
2.536,-0.061,9.602,-0.21,0.211,0.09
2.54,-0.067,9.624,-0.211,0.208,0.088
2.544,-0.086,9.654,-0.208,0.202,0.088
2.54,-0.071,9.634,-0.208,0.203,0.086
2.545,-0.103,9.632,-0.203,0.205,0.086
2.539,-0.105,9.591,-0.203,0.202,0.084
2.53,-0.109,9.561,-0.212,0.201,0.087
2.535,-0.14,9.616,-0.216,0.202,0.089
2.525,-0.11,9.604,-0.215,0.202,0.088
2.497,-0.091,9.523,-0.216,0.206,0.087
2.519,-0.097,9.518,-0.215,0.206,0.087
2.509,-0.085,9.442,-0.213,0.207,0.081
2.455,-0.138,9.379,-0.23,0.216,0.075
2.529,-0.169,9.567,-0.247,0.212,0.075
2.508,-0.105,9.604,-0.255,0.211,0.084
2.503,-0.099,9.329,-0.252,0.219,0.101
2.535,-0.309,8.918,-0.28,0.235,0.115
2.284,-0.306,8.504,-0.304,0.277,0.125
1.901,-0.462,8.238,-0.366,0.39,0.161
1.643,-0.595,8.263,-0.474,0.54,0.218
2.329,-0.791,9.402,-0.634,0.707,0.409
3.144,-0.205,10.182,-0.794,0.82,0.546
3.454,0.84,10.623,-0.834,0.828,0.484
3.282,-0.203,10.664,-0.685,0.657,0.273
2.715,-1.743,10.749,-0.639,0.511,0.057
2.252,-0.996,11.151,-0.754,0.475,0.069
2.378,0.443,11.609,-0.668,0.433,0.296
2.666,1.096,11.724,-0.503,0.306,0.349
2.614,0.584,10.701,-0.266,0.157,0.189
2.16,-0.519,9.714,-0.121,0.09,0.024
1.936,-0.312,9.188,-0.309,0.117,-0.072
1.827,-0.469,11.698,-1.011,0.14,-0.15
1.475,-2.073,12.217,-1.381,-0.104,-0.109
1.989,-2.639,8.8,-1.18,-0.261,0.076
4.314,0.694,8.066,-0.48,-0.123,-0.055
5.37,1.885,10.278,0.634,-0.44,-0.179
2.079,4.8,5.002,3.178,0.042,0.048
-0.766,2.429,1.714,4.842,1.009,0.395
0.632,-3.417,4.626,4.282,1.781,0.053
2.659,-10.036,7.583,1.592,1.681,-0.593
3.215,-9.652,12.973,-1.146,1.391,-0.783
-0.669,-3.222,18.185,-3.653,1.035,-0.268
-2.699,10.862,19.392,-3.767,0.769,0.586
-0.26,13.649,12.565,-1.544,0.84,1.335
4.157,5.201,6.387,-0.307,0.525,0.771
4.33,0.1,4.642,1.369,0.117,-0.327
2.497,-1.785,6.42,2.273,-0.09,-0.643
0.998,-3.609,7.788,2.08,-0.18,-0.303
0.831,-5.729,8.168,1.194,-0.087,-0.086
1.193,-5.94,9.136,-0.184,0.096,-0.024
1.774,-3.168,9.971,-1.249,0.166,0.153
1.997,0.409,10.236,-1.662,0.141,0.339
1.933,2.731,10.545,-1.538,0.075,0.323
1.678,3.419,10.854,-1.095,-0.062,0.155
1.447,3.392,10.948,-0.622,-0.194,0.036
2.08,1.899,10.48,-0.421,-0.378,0.012
2.289,1.448,11.163,-0.353,-0.624,0.003
2.212,0.949,11.525,-0.461,-0.791,-0.046
2.534,-0.026,10.399,-0.486,-0.752,0.009
2.998,-2.264,8.911,-0.485,-0.51,-0.03
2.759,-3.516,7.845,-0.702,-0.284,-0.23
1.306,-2.083,7.684,-1.223,-0.207,-0.235
2.614,0.559,8,-1.189,-0.135,0.101
3.751,1.151,8.003,-0.634,0.013,0.421
3.326,0.341,8.576,-0.262,0.187,0.362
2.407,-0.506,9.692,-0.178,0.208,0.236
2.195,-0.818,10.83,-0.273,0.157,0.104
2.286,-0.371,11.139,-0.383,0.156,0.124
2.351,0.031,10.974,-0.379,0.176,0.176
2.531,0.472,10.353,-0.272,0.161,0.163
2.69,0.549,9.723,-0.131,0.138,0.145
2.7,0.393,9.418,-0.024,0.126,0.114
2.606,0.081,9.178,0.03,0.111,0.057
2.531,-0.396,9.167,0.025,0.111,0.015
2.532,-0.713,9.357,-0.031,0.107,0.004
2.476,-0.612,9.529,-0.081,0.097,0.009
2.432,-0.486,9.749,-0.107,0.084,0.032
2.384,-0.429,9.871,-0.119,0.072,0.056
2.269,-0.213,9.77,-0.119,0.069,0.064
2.176,-0.074,9.523,-0.116,0.088,0.076
2.166,0.116,9.114,-0.076,0.13,0.1
2.259,0.049,8.999,-0.04,0.18,0.148
2.29,-0.333,9.164,-0.054,0.206,0.167
2.305,-0.626,9.481,-0.119,0.208,0.13
2.332,-0.667,9.72,-0.18,0.212,0.08
2.375,-0.603,9.824,-0.2,0.217,0.051
2.442,-0.57,9.916,-0.203,0.212,0.037
2.508,-0.486,10.063,-0.218,0.19,0.035
2.497,-0.531,10.098,-0.209,0.155,0.034
2.492,-0.571,9.951,-0.184,0.133,0.029
2.471,-0.436,9.533,-0.154,0.131,0.035
2.409,-0.194,9.18,-0.118,0.158,0.068
2.41,-0.11,9.079,-0.08,0.187,0.109
2.443,-0.212,9.194,-0.079,0.203,0.114
2.478,-0.381,9.557,-0.131,0.217,0.093
2.481,-0.499,9.837,-0.211,0.22,0.051
2.498,-0.283,9.946,-0.25,0.22,0.015
2.572,-0.103,10.034,-0.252,0.2,0.017

2.583,-0.206,9.673,-0.214,0.213,0.086
2.581,-0.184,9.662,-0.208,0.209,0.088
2.549,-0.155,9.625,-0.214,0.214,0.095
2.556,-0.114,9.601,-0.222,0.222,0.097
2.548,-0.111,9.601,-0.22,0.218,0.096
2.535,-0.121,9.589,-0.215,0.214,0.094
2.527,-0.11,9.573,-0.214,0.218,0.096
2.499,-0.109,9.536,-0.207,0.212,0.099
2.513,-0.125,9.517,-0.211,0.212,0.098
2.528,-0.145,9.551,-0.211,0.212,0.096
2.495,-0.152,9.52,-0.205,0.207,0.094
2.507,-0.144,9.504,-0.204,0.212,0.096
2.505,-0.16,9.529,-0.203,0.214,0.097
2.494,-0.218,9.523,-0.204,0.22,0.096
2.498,-0.232,9.52,-0.209,0.225,0.094
2.521,-0.235,9.581,-0.217,0.23,0.096
2.518,-0.212,9.615,-0.221,0.228,0.099
2.504,-0.219,9.626,-0.212,0.218,0.101
2.536,-0.214,9.63,-0.213,0.221,0.102
2.536,-0.229,9.602,-0.207,0.214,0.099
2.535,-0.246,9.579,-0.208,0.218,0.091
2.533,-0.267,9.553,-0.207,0.217,0.086
2.534,-0.231,9.54,-0.207,0.212,0.083
2.523,-0.206,9.505,-0.211,0.213,0.085
2.518,-0.228,9.548,-0.219,0.215,0.083
2.517,-0.165,9.655,-0.226,0.216,0.081
2.501,-0.103,9.633,-0.221,0.213,0.086
2.457,-0.101,9.394,-0.218,0.216,0.09
2.433,-0.158,9.234,-0.245,0.226,0.089
2.383,-0.211,9.023,-0.285,0.241,0.101
2.196,-0.381,8.585,-0.31,0.269,0.136
1.734,-0.96,8.675,-0.321,0.388,0.197
1.987,-0.303,8.703,-0.464,0.603,0.257
2.326,0.105,8.788,-0.62,0.814,0.378
2.752,-0.081,9.003,-0.668,0.92,0.49
3.294,-0.362,9.674,-0.822,0.906,0.413
3.296,-0.395,10.901,-0.89,0.795,0.26
2.772,-1.181,12.614,-0.843,0.617,0.199
2.493,-0.727,12.997,-0.803,0.452,0.285
2.422,0.973,12.064,-0.65,0.332,0.442
2.534,1.79,10.389,-0.307,0.249,0.47
2.411,1.022,8.957,0.002,0.232,0.238
1.698,-0.83,10.465,-0.45,0.347,-0.164
0.747,-3.53,12.398,-1.413,0.194,-0.323
2.152,-2.248,7.48,-1.508,-0.175,0.104
4.883,2.965,6.234,-0.274,-0.169,0.284
5.3,2.692,11.504,1.591,-0.427,0.094
2.151,2.233,7.867,4.362,-0.01,0.019
0.095,-2.773,4.289,4.212,0.854,0.176
3.249,-6.331,9.297,1.559,1.736,0.063
4.069,-8.746,14.112,-0.602,1.683,-0.198
-0.101,-1.749,12.469,-1.055,1.341,-0.142
-5.047,12.893,19.408,-2.681,0.779,0.53
-1.165,13.276,6.624,-1.471,0.743,1.463
5.016,1.396,6.959,0.996,0.216,0.545
3.098,-3.172,8.207,2.017,-0.364,-0.39
0.733,-6.229,6.278,1.812,-0.297,-0.303
0.083,-8.07,6.637,0.709,-0.027,0.307
0.932,-5.654,8.282,-0.735,0.229,0.56
2.108,-1.079,9.494,-1.321,0.26,0.413
1.821,1.115,10.729,-1.222,0.11,0.194
0.974,2.633,12.801,-1.068,-0.071,0.079
1.16,4.027,13.206,-1.05,-0.308,0.205
2.285,3.449,13.46,-1.004,-0.693,0.392
3.922,1.521,11.898,-0.941,-1.044,0.268
3.378,-0.614,7.658,-0.716,-1.07,-0.176
3.774,-2.865,8.307,-1.107,-0.703,-0.306
3.22,-3.445,5.796,-1.209,-0.273,-0.232
-0.023,-2.223,4.893,-0.603,0.192,-0.117
0.368,-2.954,4.856,-0.254,0.13,-0.142
4.117,-2.798,5.823,0.12,0.093,-0.221
3.119,-2.318,7.393,-0.073,0.234,-0.194
1.497,-1.328,9.276,-0.66,0.434,-0.124
1.402,-0.189,11.166,-0.968,0.536,-0.02
2.042,0.824,12.46,-0.974,0.506,0.044
2.337,1.291,12.6,-0.815,0.395,0.109
2.488,1.74,11.694,-0.554,0.283,0.163
2.666,1.999,10.517,-0.278,0.225,0.218
2.844,1.426,9.828,-0.048,0.199,0.212
2.829,0.53,9.567,0.078,0.187,0.065
2.772,-0.165,9.603,0.111,0.172,-0.116
2.702,-0.585,9.628,0.141,0.166,-0.232
2.675,-0.968,9.772,0.122,0.155,-0.274
2.674,-1.104,10.017,0.062,0.122,-0.246
2.511,-1.133,10.165,-0.002,0.078,-0.189
2.31,-0.853,10.037,-0.047,0.061,-0.131
2.208,-0.473,9.778,-0.049,0.079,-0.037
2.142,-0.232,9.548,0.009,0.095,0.071
2.16,-0.086,9.407,0.05,0.113,0.152
2.222,-0.204,9.548,0.02,0.123,0.212
2.258,-0.447,9.771,-0.072,0.119,0.196
2.328,-0.381,9.894,-0.164,0.135,0.121
2.406,-0.463,9.936,-0.232,0.144,0.071
2.332,-0.49,9.872,-0.253,0.159,0.036
2.311,-0.51,9.831,-0.245,0.178,-0.004
2.339,-0.54,9.743,-0.212,0.194,-0.018
2.391,-0.517,9.709,-0.162,0.2,-0.014
2.419,-0.55,9.73,-0.107,0.182,0.005
2.372,-0.533,9.579,-0.056,0.174,0.029
2.351,-0.504,9.584,-0.039,0.181,0.053
2.337,-0.509,9.543,-0.041,0.184,0.071
2.329,-0.641,9.552,-0.121,0.194,0.073
2.343,-0.59,9.474,-0.206,0.2,0.059
2.32,-0.426,9.403,-0.269,0.22,0.063

2.476,-0.247,9.684,-0.25,0.234,0.106
2.473,-0.27,9.725,-0.246,0.233,0.1
2.478,-0.282,9.73,-0.241,0.231,0.098
2.479,-0.266,9.656,-0.233,0.226,0.097
2.441,-0.244,9.557,-0.233,0.23,0.098
2.472,-0.314,9.545,-0.236,0.232,0.103
2.463,-0.385,9.632,-0.236,0.225,0.101
2.462,-0.326,9.656,-0.241,0.218,0.101
2.481,-0.277,9.595,-0.246,0.218,0.104
2.471,-0.228,9.572,-0.246,0.217,0.102
2.465,-0.234,9.499,-0.243,0.22,0.096
2.419,-0.325,9.496,-0.241,0.22,0.09
2.418,-0.331,9.493,-0.244,0.217,0.081
2.433,-0.264,9.511,-0.248,0.216,0.083
2.403,-0.259,9.577,-0.255,0.216,0.092
2.391,-0.234,9.544,-0.245,0.216,0.09
2.376,-0.219,9.452,-0.237,0.217,0.088
2.391,-0.223,9.445,-0.246,0.222,0.091
2.372,-0.163,9.454,-0.242,0.225,0.096
2.393,-0.216,9.4,-0.234,0.228,0.106
2.366,-0.341,9.205,-0.226,0.238,0.109
2.375,-0.374,9.091,-0.246,0.265,0.114
2.436,-0.512,9.108,-0.285,0.301,0.141
2.125,-0.58,8.936,-0.305,0.374,0.162
2.125,-0.691,9.002,-0.416,0.474,0.155
1.995,-0.253,9.059,-0.502,0.621,0.197
2.272,-0.202,10.01,-0.671,0.719,0.35
2.768,0.079,10.838,-0.86,0.705,0.425
2.868,-0.054,10.793,-0.809,0.671,0.34
2.541,-0.573,10.22,-0.622,0.678,0.206
2.588,-1.15,10.188,-0.534,0.653,0.155
2.425,-1.084,10.779,-0.535,0.54,0.152
1.95,-0.64,10.9,-0.479,0.394,0.19
1.736,-0.537,10.296,-0.321,0.341,0.191
2.056,-0.707,9.847,-0.225,0.367,0.112
2.092,-0.573,9.296,-0.235,0.348,0.063
2.02,-0.133,9.485,-0.382,0.32,0.07
1.748,-0.3,12.661,-0.869,0.357,0.011
1.718,-1.697,14.728,-1.356,0.129,0.003
2.081,-0.72,10.43,-1.112,-0.413,0.231
2.998,1.397,3.845,-0.328,-0.305,0.271
4.182,-0.031,7.67,0.677,-0.135,0.019
3.076,0.867,9.815,2.067,-0.244,-0.129
2.272,3.506,7.491,4.224,0.537,0.181
-0.494,-1.221,1.456,4.765,1.392,0.24
0.651,-10.023,4.372,2.7,1.755,-0.231
2.891,-11.348,13.041,-0.812,1.433,-0.574
3.512,-5.31,14.468,-3.477,1.324,-0.072
-0.945,3.838,19.356,-4.647,1.068,0.665
-3.861,20.058,18.353,-1.811,0.59,1.249
1.918,7.941,7.65,0.62,0.539,0.998
4.757,-3.276,5.177,2.018,-0.256,-0.545
3.313,-5.092,5.805,2.474,-0.462,-1.037
0.443,-4.763,6.782,1.808,-0.467,-0.543
-0.165,-5.747,7.046,0.723,-0.218,0.12
0.977,-4.971,7.508,-0.636,0.086,0.323
2.049,-1.371,8.54,-1.58,0.263,0.324
1.967,1.037,9.858,-1.751,0.249,0.276
1.769,2.282,10.19,-1.298,0.124,0.175
1.492,2.683,11.079,-0.937,-0.032,0.032
1.401,2.12,11.692,-0.724,-0.172,-0.124
1.424,1.125,11.324,-0.542,-0.402,-0.149
1.773,1.248,11.35,-0.4,-0.6,-0.033
1.96,-0.192,10.799,-0.45,-0.713,0.066
2.147,-0.232,8.56,-0.413,-0.658,-0.005
2.723,-1.991,7.176,-0.194,-0.452,-0.131
3.335,-3.585,7.256,-0.284,-0.258,-0.419
2.94,-2.296,7.976,-0.549,-0.136,-0.43
2.384,0.754,8.864,-0.688,0.008,-0.061
2.418,1.666,9.268,-0.698,0.067,0.301
2.693,1.273,9.323,-0.479,0.13,0.359
2.718,0.339,9.785,-0.282,0.162,0.272
2.608,-0.346,10.261,-0.23,0.135,0.191
2.408,-0.488,10.371,-0.248,0.112,0.145
2.263,-0.211,10.342,-0.223,0.112,0.11
2.405,-0.081,10.41,-0.161,0.096,0.078
2.638,-0.007,10.367,-0.077,0.054,0.035
2.59,0.04,10.181,-0.007,0.016,-0.005
2.431,0.074,9.816,0,0.016,-0.019
2.39,-0.003,9.331,-0.014,0.054,0.001
2.334,-0.196,8.959,-0.033,0.107,0.04
2.293,-0.48,9.067,-0.051,0.154,0.089
2.24,-0.756,9.272,-0.051,0.163,0.127
2.21,-0.979,9.655,-0.077,0.149,0.128
2.178,-0.802,9.991,-0.132,0.132,0.131
2.21,-0.427,10.115,-0.163,0.117,0.152
2.294,-0.176,10.168,-0.175,0.109,0.18
2.251,-0.02,9.994,-0.161,0.111,0.174
2.256,0.089,9.597,-0.134,0.129,0.152
2.261,-0.071,9.269,-0.103,0.163,0.152
2.246,-0.344,9.189,-0.092,0.197,0.142
2.255,-0.62,9.281,-0.116,0.207,0.109
2.273,-0.758,9.51,-0.158,0.21,0.076
2.306,-0.653,9.738,-0.186,0.207,0.054
2.34,-0.505,9.837,-0.189,0.2,0.05
2.366,-0.478,9.989,-0.179,0.186,0.056
2.367,-0.378,9.916,-0.159,0.175,0.052
2.379,-0.226,9.844,-0.158,0.173,0.057
2.34,-0.155,9.652,-0.132,0.171,0.085
2.307,-0.2,9.33,-0.11,0.179,0.112
2.291,-0.265,9.145,-0.14,0.204,0.12
2.308,-0.368,9.205,-0.197,0.23,0.12
2.365,-0.435,9.51,-0.231,0.235,0.103
2.382,-0.352,9.791,-0.237,0.223,0.07

2.437,-0.01,9.636,-0.217,0.204,0.093
2.409,-0.006,9.593,-0.215,0.203,0.091
2.407,-0.037,9.539,-0.217,0.213,0.084
2.373,-0.073,9.538,-0.213,0.211,0.078
2.4,-0.054,9.529,-0.211,0.215,0.08
2.389,-0.031,9.558,-0.21,0.212,0.088
2.391,-0.007,9.621,-0.207,0.206,0.091
2.414,0.036,9.64,-0.206,0.207,0.088
2.416,0.03,9.608,-0.208,0.212,0.085
2.402,0.042,9.571,-0.203,0.21,0.083
2.414,0.001,9.564,-0.2,0.215,0.08
2.414,-0.064,9.604,-0.201,0.218,0.079
2.405,-0.094,9.634,-0.195,0.213,0.08
2.424,-0.099,9.635,-0.2,0.212,0.087
2.421,-0.055,9.622,-0.207,0.218,0.095
2.412,-0.075,9.633,-0.205,0.219,0.096
2.411,-0.06,9.639,-0.209,0.228,0.094
2.404,-0.073,9.611,-0.207,0.229,0.093
2.428,-0.097,9.639,-0.207,0.228,0.095
2.432,-0.072,9.666,-0.208,0.224,0.092
2.437,-0.069,9.668,-0.208,0.22,0.094
2.424,-0.028,9.624,-0.207,0.22,0.095
2.353,-0.045,9.562,-0.211,0.217,0.092
2.391,-0.127,9.556,-0.225,0.216,0.086
2.384,-0.075,9.431,-0.246,0.227,0.083
2.312,-0.13,9.194,-0.277,0.243,0.101
2.241,-0.411,9.139,-0.354,0.262,0.131
2.398,-0.639,9.242,-0.402,0.289,0.184
2.143,0.243,8.978,-0.413,0.437,0.269
2.004,0.306,9.039,-0.676,0.656,0.303
1.979,0.355,9.13,-0.86,0.835,0.218
2.394,1.051,9.65,-0.91,0.923,0.156
2.952,0.811,9.968,-0.866,0.85,0.138
2.888,-0.834,10.388,-0.758,0.716,0.093
2.487,-2.161,10.875,-0.778,0.621,-0.002
2.166,-2.369,11.625,-0.899,0.549,0.048
2.061,-1.018,11.841,-0.873,0.441,0.229
2.237,0.343,11.279,-0.622,0.262,0.324
2.213,-0.056,10.415,-0.289,0.168,0.278
1.983,-0.118,9.485,-0.131,0.153,0.149
1.968,-0.061,8.815,-0.294,0.188,0.08
1.883,-0.168,11.045,-0.851,0.221,-0.047
1.425,-0.732,13.232,-1.277,0.114,-0.045
1.442,-2.027,10.703,-1.319,-0.188,0.236
2.719,-0.23,3.754,-0.84,-0.318,0.387
4.541,1.429,7.832,0.191,-0.131,0.221
3.889,1.502,12.262,1.429,-0.298,-0.048
1.881,5.309,5.361,4.139,0.401,0.131
-1.007,-0.263,3.907,4.791,1.115,0.436
1.344,-9.211,8.738,2.848,1.474,0.072
3.519,-10.67,14.429,-0.337,1.151,-0.377
2.698,-2.882,11.92,-2.409,1.078,-0.065
-2.36,4.807,19.305,-3.97,0.981,0.585
-2.37,14.999,15.568,-2.134,0.585,1.11
2.88,5.503,7.193,0.189,0.554,0.881
4.168,-1.945,5.471,1.485,0.012,-0.307
2.862,-3.738,6.131,2.007,-0.221,-0.737
0.88,-4.453,6.408,1.513,-0.233,-0.433
0.258,-6.104,7.181,0.737,-0.107,-0.037
0.656,-5.884,7.826,-0.259,0.129,0.131
1.455,-3.211,8.63,-1.18,0.277,0.237
1.809,0.069,9.749,-1.632,0.234,0.239
1.704,2.462,11.6,-1.664,0.042,0.078
1.135,3.62,12.07,-1.434,-0.176,-0.014
1.354,3.421,11.755,-1.289,-0.368,0.038
1.756,4.562,11.383,-1.004,-0.493,0.034
1.969,2.555,10.777,-0.549,-0.612,0.096
2.503,-1.63,9.867,-0.179,-0.716,-0.07
3.06,-3.082,8.008,0.214,-0.547,-0.396
3.746,-3.798,7.387,0.249,-0.32,-0.561
2.365,-2.908,7.956,-0.126,-0.067,-0.529
1.899,-0.806,8.884,-0.452,0.02,-0.21
2.462,0.818,9.171,-0.503,0.047,0.135
2.869,1.571,8.982,-0.356,0.167,0.288
2.695,0.818,9.585,-0.286,0.222,0.41
2.445,0.37,10.212,-0.227,0.159,0.359
2.319,0.283,10.608,-0.267,0.093,0.261
2.267,0.199,10.487,-0.281,0.105,0.205
2.397,0.209,10.291,-0.225,0.124,0.12
2.579,0.227,10.186,-0.122,0.105,0.025
2.603,0.084,10.001,-0.024,0.076,-0.049
2.514,0.023,9.695,0.023,0.069,-0.101
2.45,-0.163,9.527,0.006,0.081,-0.096
2.414,-0.391,9.513,-0.033,0.093,-0.052
2.285,-0.491,9.543,-0.047,0.09,-0.004
2.203,-0.565,9.62,-0.043,0.084,0.063
2.175,-0.549,9.683,-0.035,0.083,0.123
2.126,-0.501,9.665,-0.049,0.087,0.151
2.097,-0.398,9.587,-0.087,0.101,0.171
2.096,-0.292,9.467,-0.09,0.124,0.178
2.111,-0.321,9.344,-0.096,0.157,0.163
2.164,-0.323,9.385,-0.126,0.186,0.133
2.171,-0.295,9.518,-0.154,0.2,0.119
2.223,-0.238,9.649,-0.172,0.21,0.111
2.275,-0.235,9.709,-0.177,0.212,0.105
2.312,-0.334,9.75,-0.175,0.206,0.083
2.3,-0.395,9.681,-0.169,0.203,0.054
2.294,-0.369,9.638,-0.175,0.214,0.042
2.32,-0.322,9.637,-0.157,0.222,0.056
2.32,-0.4,9.661,-0.132,0.225,0.07
2.286,-0.418,9.713,-0.113,0.219,0.075
2.298,-0.453,9.753,-0.124,0.207,0.081
2.284,-0.418,9.734,-0.157,0.197,0.08
2.295,-0.278,9.698,-0.194,0.194,0.078

2.405,-0.074,9.608,-0.209,0.211,0.093
2.393,-0.112,9.61,-0.207,0.208,0.092
2.387,-0.105,9.623,-0.217,0.215,0.091
2.407,-0.088,9.656,-0.217,0.218,0.09
2.395,-0.074,9.682,-0.211,0.214,0.09
2.367,-0.028,9.632,-0.207,0.214,0.09
2.366,-0.047,9.622,-0.214,0.218,0.091
2.363,-0.023,9.591,-0.219,0.218,0.091
2.356,-0.026,9.618,-0.221,0.222,0.092
2.369,-0.035,9.641,-0.223,0.223,0.095
2.34,-0.023,9.592,-0.222,0.218,0.096
2.346,-0.029,9.527,-0.227,0.224,0.094
2.366,-0.041,9.582,-0.231,0.227,0.094
2.396,-0.041,9.693,-0.22,0.224,0.096
2.413,-0.043,9.673,-0.211,0.223,0.093
2.402,-0.073,9.709,-0.224,0.218,0.098
2.371,-0.119,9.656,-0.249,0.216,0.104
2.311,-0.105,9.373,-0.264,0.232,0.107
2.337,-0.194,9.341,-0.301,0.242,0.12
2.398,-0.319,9.265,-0.341,0.237,0.129
2.274,-0.435,9.151,-0.352,0.242,0.146
2.138,0.071,8.614,-0.327,0.33,0.189
2.142,-0.247,8.538,-0.406,0.438,0.227
1.763,-0.524,8.627,-0.464,0.548,0.186
1.738,-0.087,9.227,-0.522,0.664,0.217
2.333,-0.057,10.085,-0.665,0.752,0.37
2.845,-0.235,10.079,-0.801,0.804,0.419
2.846,0.101,9.723,-0.819,0.822,0.307
2.866,0.414,9.777,-0.732,0.8,0.222
2.565,-1.127,11.425,-0.67,0.725,0.158
2.23,-1.465,12.893,-0.649,0.54,0.114
2.033,0.055,12.83,-0.61,0.313,0.204
2.233,0.572,11.555,-0.451,0.17,0.297
2.124,0.579,9.751,-0.312,0.138,0.177
1.694,-0.05,9.8,-0.553,0.2,-0.022
1.235,-0.977,12.318,-1.085,0.228,-0.128
1.25,-3.266,12.292,-1.533,-0.123,0.036
2.779,-1.396,6.803,-1.233,-0.535,0.362
5.674,3.502,7.394,-0.191,-0.334,0.349
3.887,4.037,9.079,1.815,-0.416,0.149
0.501,4.717,0.504,4.568,0.508,0.105
-1.619,-0.876,2.149,4.844,1.546,0.116
1.527,-9.288,8.674,3.149,1.869,-0.13
4.292,-12.469,15.024,-0.193,1.326,-0.375
2.359,-8.629,14.631,-2.811,1.194,-0.304
-4.524,10.822,19.398,-3.956,1.008,0.317
-3.404,17.47,13.936,-3.026,0.761,1.635
4.44,6.712,5.948,-0.39,0.598,1.038
4.963,-0.575,5.76,1.523,-0.057,-0.252
2.037,-3.568,7.672,2.218,-0.264,-0.762
0.194,-6.092,7.197,1.746,-0.255,-0.272
0.393,-7.748,7.382,0.593,-0.064,0.139
1.332,-5.801,8.063,-0.686,0.116,0.156
1.865,-2.333,8.831,-1.466,0.172,0.171
1.747,0.251,9.896,-1.521,0.123,0.133
1.376,1.846,11.209,-1.036,-0.008,-0.024
1.157,2.544,11.549,-0.549,-0.146,-0.101
1.383,3.093,10.763,-0.428,-0.293,-0.03
1.495,3.014,11.661,-0.599,-0.406,0.054
2.15,2.098,11.217,-0.508,-0.485,-0.036
2.866,0.289,10.272,-0.394,-0.561,-0.139
2.804,-0.279,8.889,-0.24,-0.434,-0.238
2.697,-0.846,8.134,-0.142,-0.143,-0.254
2.459,-2.051,7.822,-0.335,-0.011,-0.317
1.259,-1.358,8.085,-0.514,0.028,-0.282
1.32,-0.284,8.686,-0.707,-0.026,-0.063
2.673,0.753,9.214,-0.595,-0.009,0.164
3.002,0.983,9.537,-0.288,0.057,0.235
2.727,0.553,10.006,-0.233,0.065,0.234
2.46,0.424,10.473,-0.302,0.045,0.231
2.325,0.417,10.728,-0.357,0.019,0.192
2.279,0.269,10.881,-0.388,0.027,0.16
2.352,0.378,10.579,-0.305,0.036,0.11
2.344,0.378,9.799,-0.145,0.057,0.071
2.327,0.257,8.975,-0.032,0.114,0.047
2.333,0.049,8.62,-0.008,0.185,0.021
2.372,-0.202,8.975,-0.035,0.221,-0.007
2.373,-0.513,9.585,-0.054,0.202,-0.023
2.336,-0.717,10.08,-0.058,0.168,-0.052
2.271,-0.622,10.365,-0.091,0.125,-0.053
2.184,-0.42,10.422,-0.114,0.086,0.002
2.126,-0.27,10.155,-0.122,0.07,0.063
2.097,-0.19,9.807,-0.111,0.08,0.099
2.056,-0.081,9.435,-0.089,0.103,0.122
1.986,-0.01,9.025,-0.061,0.149,0.142
2.042,-0.016,8.97,-0.078,0.19,0.146
2.057,-0.088,9.174,-0.152,0.21,0.129
2.112,-0.082,9.546,-0.222,0.22,0.095
2.189,-0.077,9.939,-0.236,0.212,0.061
2.218,-0.12,10.062,-0.2,0.197,0.036
2.23,-0.164,10.038,-0.176,0.185,0.02
2.227,-0.02,9.922,-0.189,0.187,0.01
2.301,0.071,9.814,-0.182,0.189,0.028
2.286,-0.048,9.656,-0.149,0.182,0.061
2.18,-0.085,9.373,-0.114,0.193,0.085
2.152,-0.137,9.253,-0.115,0.221,0.111
2.19,-0.141,9.345,-0.159,0.237,0.129
2.235,0.009,9.589,-0.215,0.243,0.132
2.257,0.209,9.711,-0.248,0.241,0.127
2.317,0.283,9.767,-0.254,0.25,0.12
2.361,0.19,9.892,-0.238,0.24,0.099
2.405,0.093,9.953,-0.212,0.22,0.071
2.398,0.012,9.895,-0.188,0.2,0.053
2.334,-0.053,9.733,-0.158,0.19,0.044

2.355,0.037,9.63,-0.21,0.215,0.078
2.363,0.03,9.614,-0.208,0.217,0.08
2.358,0.016,9.62,-0.211,0.217,0.08
2.358,0.018,9.624,-0.21,0.217,0.082
2.346,0.001,9.581,-0.205,0.217,0.088
2.367,0.033,9.536,-0.202,0.22,0.09
2.372,0.03,9.5,-0.202,0.224,0.094
2.39,0.032,9.513,-0.206,0.229,0.094
2.379,-0.014,9.543,-0.204,0.225,0.09
2.393,-0.019,9.588,-0.208,0.233,0.083
2.414,-0.01,9.699,-0.209,0.231,0.078
2.414,0.016,9.716,-0.208,0.231,0.081
2.394,0.009,9.707,-0.21,0.234,0.088
2.396,-0.035,9.67,-0.209,0.231,0.094
2.406,-0.026,9.624,-0.214,0.231,0.096
2.384,-0.012,9.544,-0.223,0.234,0.099
2.391,-0.038,9.581,-0.227,0.23,0.101
2.444,-0.038,9.714,-0.232,0.223,0.095
2.44,0.008,9.617,-0.225,0.216,0.088
2.404,-0.004,9.48,-0.239,0.225,0.084
2.408,-0.013,9.407,-0.276,0.233,0.087
2.41,-0.23,9.3,-0.32,0.232,0.087
2.324,-0.375,8.832,-0.328,0.249,0.094
2.05,-0.138,8.407,-0.39,0.317,0.131
1.912,0.016,8.027,-0.512,0.455,0.196
1.851,0.03,8.261,-0.546,0.621,0.251
2.061,0.311,9.387,-0.559,0.713,0.334
2.618,0.521,10.227,-0.682,0.724,0.404
2.917,-0.647,10.838,-0.822,0.719,0.312
2.75,-1.077,11.103,-0.865,0.69,0.089
2.522,-0.742,11.093,-0.869,0.644,0.031
2.776,-0.207,11.493,-0.832,0.562,0.103
2.659,0.216,12.212,-0.615,0.415,0.217
2.436,0.032,11.735,-0.365,0.254,0.295
2.169,0.175,10.263,-0.189,0.156,0.259
2.035,-0.485,9.076,-0.13,0.128,0.104
1.942,-1.107,8.26,-0.157,0.149,-0.028
1.93,-0.668,8.319,-0.271,0.172,-0.02
1.962,-0.207,9.473,-0.505,0.198,0.032
1.505,-0.781,11.208,-0.869,0.241,-0.029
0.91,-1.901,12.962,-1.254,0.285,0.007
1.456,-2.264,11.817,-1.429,-0.021,0.257
3.091,1.564,5.858,-0.916,-0.224,0.483
4.492,2.159,8.617,-0.078,-0.169,0.35
3.065,2.802,9.391,1.204,-0.302,0.061
1.301,5.735,6.185,3.852,0.292,0.198
0.104,1.513,4.884,4.74,1.002,0.47
1.639,-9.787,12.031,2.937,1.359,0.026
3.565,-14.266,16.718,-0.163,1.093,-0.701
3.206,-1.982,10.851,-2.517,1.103,-0.514
0.603,8.339,10.288,-3.359,1.204,0.823
-3.99,12.021,19.401,-1.95,0.596,1.543
-0.678,7.573,10.321,0.685,0.522,0.947
4.635,-1.271,5.135,1.298,0.211,-0.434
4.214,-3.518,4.708,1.588,-0.086,-0.741
1.932,-2.757,6.948,1.655,-0.112,-0.326
0.443,-4.446,7.795,1.164,-0.162,0.229
0.514,-5.895,7.47,0.077,-0.01,0.307
1.201,-4.34,8.996,-1.1,0.13,0.158
1.592,-1.228,9.654,-1.559,0.137,0.15
1.65,1.654,10.156,-1.364,0.099,0.199
1.808,3.265,11.536,-0.973,-0.043,0.108
1.713,3.285,11.506,-0.68,-0.209,-0.057
1.795,1.535,11.999,-0.72,-0.457,-0.187
1.772,1.93,11.118,-0.698,-0.646,-0.158
1.885,0.398,9.116,-0.48,-0.585,-0.011
2.583,-0.644,8.028,-0.203,-0.535,-0.121
2.564,-2.479,7.881,-0.147,-0.501,-0.353
2.381,-2.584,7.762,-0.137,-0.408,-0.546
2.638,-1.746,7.972,-0.214,-0.188,-0.487
2.444,-0.164,8.64,-0.201,0.027,-0.261
2.23,1.336,8.957,-0.184,0.134,-0.014
2.423,1.889,9.441,-0.229,0.171,0.171
2.502,1.602,10.004,-0.285,0.181,0.264
2.667,1.246,10.17,-0.33,0.203,0.255
2.735,1.188,10.282,-0.319,0.177,0.253
2.511,0.842,10.435,-0.267,0.129,0.176
2.485,0.569,10.432,-0.211,0.125,0.092
2.606,0.428,10.2,-0.141,0.132,0.024
2.62,0.397,9.914,-0.071,0.135,-0.029
2.591,0.364,9.614,-0.006,0.144,-0.064
2.587,0.194,9.577,0.011,0.132,-0.079
2.511,0.017,9.465,-0.006,0.135,-0.054
2.429,-0.052,9.512,-0.042,0.147,-0.004
2.404,-0.129,9.701,-0.071,0.147,0.054
2.365,-0.333,9.786,-0.086,0.143,0.116
2.272,-0.415,9.757,-0.096,0.144,0.153
2.275,-0.312,9.714,-0.106,0.151,0.165
2.244,-0.148,9.529,-0.128,0.16,0.178
2.271,0.108,9.511,-0.167,0.183,0.188
2.358,0.301,9.637,-0.193,0.191,0.191
2.391,0.305,9.694,-0.183,0.194,0.168
2.401,0.148,9.721,-0.17,0.194,0.124
2.368,-0.147,9.777,-0.174,0.181,0.067
2.348,-0.243,9.823,-0.18,0.174,0.022
2.319,-0.218,9.766,-0.177,0.173,0.009
2.303,-0.172,9.522,-0.158,0.183,0.018
2.333,-0.199,9.407,-0.153,0.199,0.032
2.343,-0.166,9.496,-0.165,0.202,0.046
2.376,-0.03,9.627,-0.179,0.2,0.071
2.338,0.18,9.537,-0.18,0.218,0.102
2.309,0.171,9.384,-0.178,0.25,0.126
2.366,0.002,9.561,-0.214,0.259,0.113
2.412,0.11,9.82,-0.264,0.247,0.088

2.299,-0.038,9.664,-0.211,0.209,0.083
2.292,-0.025,9.651,-0.215,0.21,0.083
2.299,-0.022,9.637,-0.22,0.214,0.084
2.283,-0.032,9.618,-0.218,0.216,0.081
2.281,-0.07,9.608,-0.213,0.214,0.078
2.279,-0.016,9.579,-0.216,0.213,0.078
2.275,-0.006,9.546,-0.225,0.217,0.083
2.288,-0.012,9.571,-0.231,0.219,0.085
2.279,0.004,9.624,-0.233,0.224,0.088
2.322,-0.052,9.729,-0.234,0.22,0.092
2.293,0.036,9.683,-0.224,0.216,0.094
2.353,0.049,9.684,-0.221,0.21,0.101
2.29,0.004,9.494,-0.226,0.212,0.104
2.273,-0.073,9.393,-0.236,0.223,0.1
2.199,-0.247,9.229,-0.265,0.224,0.101
2.088,-0.061,8.629,-0.296,0.252,0.125
2.051,-0.027,8.623,-0.369,0.325,0.195
2.089,0.072,8.826,-0.452,0.426,0.222
2.278,0.277,9.097,-0.498,0.514,0.224
2.327,-0.217,9.662,-0.484,0.534,0.237
2.261,-0.689,10.467,-0.465,0.503,0.164
2.09,-0.488,10.632,-0.518,0.501,0.103
2.309,-0.367,9.952,-0.6,0.59,0.187
2.596,0.032,9.1,-0.654,0.721,0.271
2.955,0.157,9.066,-0.59,0.785,0.263
2.885,-0.75,10.436,-0.557,0.728,0.183
2.253,-1.281,12.264,-0.521,0.541,0.072
1.846,-0.388,12.469,-0.419,0.331,0.055
2.091,0.399,11.243,-0.306,0.217,0.136
2.195,0.503,9.713,-0.146,0.192,0.111
1.78,-0.37,9.057,-0.088,0.203,0.04
1.717,-0.966,9.148,-0.202,0.191,0.026
1.812,0.021,9.359,-0.394,0.181,0.109
1.993,1,9.891,-0.637,0.188,0.146
1.673,0.353,11.975,-1.226,0.198,0.023
1.072,-1.848,12.408,-1.739,-0.011,-0.005
2.004,-1.742,8.22,-1.57,-0.29,0.331
4.129,2.718,5.786,-0.453,-0.152,0.39
4.757,1.569,12.027,0.756,-0.33,0.176
2.139,3.992,9.505,3.037,-0.049,-0.063
-0.734,2.194,4.003,4.783,0.819,0.202
0.104,-5.93,7.018,3.753,1.476,0.219
2.39,-10.343,11.045,0.67,1.353,-0.321
3.278,-6.073,13.289,-1.69,1.046,-0.44
-0.434,3.193,11.876,-3.279,0.931,0.225
-2.112,7.394,19.375,-3.788,0.742,1.092
0.537,11.367,11.184,-0.781,0.701,1.182
3.666,1.561,6.541,0.727,0.378,0.35
3.462,-3.045,5.862,1.713,-0.094,-0.584
1.908,-4.273,6.737,1.856,-0.229,-0.643
0.472,-4.753,7.068,1.488,-0.187,-0.329
0.454,-5.461,7.219,0.697,-0.025,-0.08
1.107,-4.867,8.055,-0.357,0.145,0.042
1.487,-1.967,9.162,-1.151,0.207,0.134
1.456,0.274,10.472,-1.501,0.193,0.21
1.467,2.184,11.263,-1.375,0.114,0.161
1.681,3.427,11.803,-1.159,-0.053,0.124
1.394,3.624,11.21,-0.951,-0.215,0.077
1.442,3.552,10.949,-0.705,-0.358,0.006
2.071,2.652,10.75,-0.378,-0.496,0.011
2.283,1.093,10.17,-0.155,-0.556,-0.024
2.421,-0.273,9.422,0.04,-0.58,-0.009
2.435,-1.978,8.253,0.131,-0.481,-0.157
3.381,-2.839,7.606,0.131,-0.334,-0.36
2.858,-2.54,8.095,-0.086,-0.12,-0.402
2.089,-1.196,9.048,-0.369,0.033,-0.211
2.17,0.228,9.096,-0.481,0.132,0.059
2.536,1.379,9.111,-0.445,0.235,0.241
2.58,1.372,9.682,-0.369,0.271,0.374
2.479,1.045,10.438,-0.354,0.219,0.4
2.308,0.818,10.949,-0.38,0.152,0.339
2.365,0.281,10.809,-0.377,0.155,0.23
2.445,-0.045,10.664,-0.277,0.127,0.152
2.418,-0.169,10.603,-0.188,0.094,0.065
2.512,-0.12,10.262,-0.132,0.076,-0.021
2.53,0.023,9.693,-0.066,0.054,-0.065
2.36,-0.058,9.304,-0.019,0.06,-0.079
2.219,-0.141,9.09,-0.011,0.106,-0.069
2.191,-0.342,9.213,-0.035,0.146,-0.032
2.141,-0.576,9.498,-0.047,0.152,0.001
2.02,-0.659,9.772,-0.058,0.148,0.023
2.008,-0.639,9.957,-0.088,0.142,0.038
2.111,-0.368,10.004,-0.147,0.127,0.121
2.151,0.002,10.023,-0.195,0.111,0.181
2.092,0.267,9.788,-0.204,0.11,0.196
2.095,0.275,9.525,-0.202,0.142,0.192
2.142,0.252,9.22,-0.192,0.181,0.169
2.181,0.128,9.14,-0.194,0.221,0.132
2.217,-0.125,9.385,-0.206,0.241,0.084
2.274,-0.3,9.664,-0.203,0.235,0.034
2.233,-0.348,9.861,-0.183,0.213,0
2.25,-0.288,9.935,-0.188,0.204,-0.013
2.294,-0.152,9.874,-0.187,0.194,-0.015
