aX,aY,aZ,gX,gY,gZ
2.303,-1.236,9.841,-0.032,0.013,-0.004
2.281,-1.213,9.883,-0.021,-0.003,-0.001
2.241,-1.211,9.848,-0.02,-0.011,-0.002
2.25,-1.29,9.869,-0.025,-0.014,-0.006
2.259,-1.353,9.851,-0.031,-0.026,-0.015
2.256,-1.361,9.775,-0.036,-0.029,-0.023
2.256,-1.356,9.767,-0.042,-0.028,-0.021
2.238,-1.4,9.748,-0.047,-0.031,-0.017
2.224,-1.465,9.692,-0.045,-0.044,-0.019
2.239,-1.501,9.715,-0.067,-0.04,-0.012
2.22,-1.497,9.703,-0.083,-0.04,-0.002
2.229,-1.474,9.705,-0.082,-0.048,0
2.215,-1.422,9.73,-0.078,-0.041,0.008
2.264,-1.434,9.731,-0.055,-0.044,0.005
2.289,-1.451,9.739,-0.053,-0.036,0.001
2.323,-1.433,9.677,-0.055,-0.021,-0.002
2.27,-1.394,9.564,-0.042,-0.025,-0.005
2.267,-1.379,9.596,-0.049,-0.016,-0.005
2.287,-1.415,9.621,-0.047,-0.018,-0.009
2.291,-1.409,9.656,-0.045,-0.026,-0.016
2.262,-1.375,9.703,-0.05,-0.024,-0.021
2.233,-1.321,9.651,-0.069,-0.011,-0.017
2.226,-1.228,9.611,-0.072,0,-0.015
2.254,-1.251,9.606,-0.062,0.004,-0.015
2.242,-1.326,9.616,-0.061,0.008,-0.016
2.228,-1.36,9.65,-0.057,0,-0.018
2.251,-1.357,9.666,-0.049,-0.01,-0.014
2.243,-1.364,9.642,-0.045,-0.009,-0.003
2.229,-1.304,9.591,-0.035,-0.01,0.008
2.278,-1.3,9.589,-0.024,-0.016,0.013
2.238,-1.344,9.55,-0.021,-0.017,0.011
2.264,-1.438,9.581,-0.033,-0.01,0.009
2.269,-1.468,9.617,-0.036,-0.014,0.002
2.288,-1.497,9.593,-0.039,-0.013,0.002
2.283,-1.488,9.593,-0.038,-0.013,0.003
2.295,-1.503,9.572,-0.046,-0.001,0.005
2.317,-1.527,9.538,-0.035,0.001,0.007
2.279,-1.559,9.504,-0.008,-0.007,-0.001
2.365,-1.602,9.505,-0.003,-0.003,0
2.335,-1.586,9.559,-0.015,0.008,0.002
2.363,-1.595,9.593,-0.015,0,0.003
2.372,-1.589,9.632,-0.027,-0.003,0.007
2.358,-1.585,9.603,-0.035,-0.004,0.011
2.329,-1.539,9.604,-0.036,0.002,0.005
2.334,-1.497,9.573,-0.02,-0.005,0.001
2.334,-1.491,9.583,-0.017,0,0
2.351,-1.5,9.595,-0.011,0.006,0
2.354,-1.494,9.648,0.005,-0.002,0.001
2.395,-1.513,9.633,0.004,0.001,0
2.38,-1.503,9.671,0.001,-0.009,-0.004
2.371,-1.464,9.606,-0.004,-0.02,-0.001
2.344,-1.461,9.634,-0.014,-0.012,-0.001
2.367,-1.471,9.617,-0.01,-0.016,-0.003
2.39,-1.479,9.588,-0.006,-0.014,-0.003
2.406,-1.443,9.616,-0.002,-0.005,0.001
2.374,-1.47,9.567,0.006,-0.011,0.003
2.393,-1.475,9.567,-0.001,-0.002,0.001
2.361,-1.485,9.549,-0.007,0.006,-0.003
2.352,-1.47,9.593,-0.009,0.004,-0.004
2.341,-1.46,9.565,-0.01,-0.002,-0.003
2.351,-1.452,9.598,-0.007,-0.005,0.002
2.351,-1.438,9.617,-0.009,0.007,0.006
2.369,-1.445,9.607,0.001,0.007,0.009
2.366,-1.448,9.612,0.004,0.005,0.015
2.364,-1.493,9.625,0.008,-0.004,0.013
2.343,-1.502,9.619,-0.004,0,0.014
2.358,-1.51,9.647,-0.004,-0.004,0.016
2.375,-1.511,9.667,-0.01,0.001,0.018
2.379,-1.496,9.643,-0.005,-0.003,0.017
2.371,-1.456,9.644,0,-0.002,0.018
2.363,-1.453,9.592,0.004,0.003,0.017
2.35,-1.476,9.618,0.013,-0.006,0.013
2.342,-1.51,9.644,0.016,-0.008,0.006
2.346,-1.531,9.656,0.007,-0.005,0.006
2.318,-1.506,9.649,0.005,-0.007,0.002
2.349,-1.489,9.667,-0.015,0.006,0.01
2.354,-1.468,9.64,-0.013,0.004,0.012
2.359,-1.482,9.625,-0.005,0.004,0.015
2.356,-1.509,9.614,0.012,-0.005,0.014
2.365,-1.527,9.613,0.016,-0.004,0.011
2.343,-1.52,9.629,0.004,0.004,0.016
2.331,-1.536,9.608,0.004,-0.002,0.015
2.336,-1.522,9.62,-0.004,0.001,0.012
2.363,-1.536,9.6,-0.022,0.015,0.018
2.358,-1.549,9.64,-0.009,0.002,0.017
2.334,-1.524,9.641,-0.004,0.003,0.01
2.319,-1.535,9.562,-0.002,0.007,0.014
2.313,-1.544,9.544,0.002,0.003,0.013
2.35,-1.53,9.57,0.001,0.002,0.008
2.336,-1.519,9.567,0.003,0.001,0.006
2.312,-1.502,9.528,-0.002,0.016,0.008
2.326,-1.53,9.616,0.001,0.01,-0.001
2.326,-1.537,9.64,-0.006,0.011,-0.003
2.347,-1.548,9.628,-0.004,0.006,-0.004
2.312,-1.534,9.6,0.001,0.002,-0.006
2.343,-1.513,9.587,-0.01,0.01,-0.006
2.327,-1.521,9.63,-0.015,0.01,-0.008
2.292,-1.489,9.6,0,-0.005,-0.01
2.327,-1.503,9.567,0.011,-0.005,-0.008
2.303,-1.497,9.594,0.014,-0.001,-0.012
2.334,-1.504,9.641,0.008,0.005,-0.013
2.308,-1.522,9.674,0.015,-0.01,-0.014
2.336,-1.491,9.677,0,0.005,-0.01
2.34,-1.47,9.686,-0.002,0.009,-0.007

2.488,-1.455,9.547,-0.004,-0.005,-0.01
2.487,-1.432,9.535,0.001,-0.008,-0.007
2.487,-1.448,9.512,-0.003,0.004,-0.005
2.488,-1.464,9.562,0.005,0.002,-0.007
2.504,-1.482,9.559,0.01,0.002,-0.004
2.48,-1.452,9.574,0.007,0.003,-0.004
2.47,-1.448,9.582,0.003,0.003,0
2.481,-1.46,9.575,-0.015,0.017,0.005
2.487,-1.49,9.54,-0.019,0.02,0.007
2.474,-1.495,9.541,-0.006,0.015,0.005
2.477,-1.485,9.516,-0.002,0.017,0.008
2.481,-1.464,9.646,0.005,0.016,0.01
2.512,-1.489,9.634,0.005,0.016,0.015
2.51,-1.508,9.645,0.006,0.007,0.014
2.486,-1.513,9.628,0,0.007,0.011
2.485,-1.475,9.621,-0.001,0.007,0.008
2.51,-1.495,9.621,0.004,0.007,0.005
2.503,-1.504,9.625,0.004,0.01,0.004
2.513,-1.523,9.601,0.003,0.01,0.009
2.489,-1.551,9.614,0.008,0.001,0.008
2.482,-1.529,9.589,0.008,-0.006,0.008
2.497,-1.534,9.636,0.003,-0.005,0.007
2.487,-1.508,9.607,-0.007,0,0.01
2.489,-1.512,9.625,-0.003,-0.001,0.009
2.471,-1.494,9.56,-0.003,0.005,0.01
2.458,-1.512,9.621,0,0.008,0.009
2.446,-1.504,9.612,0.011,-0.003,0.009
2.475,-1.502,9.662,0.006,-0.002,0.011
2.458,-1.481,9.61,-0.003,-0.002,0.013
2.462,-1.446,9.673,-0.007,-0.003,0.012
2.458,-1.441,9.585,-0.015,0.002,0.01
2.436,-1.438,9.596,-0.012,0,0.008
2.43,-1.476,9.571,-0.014,0.009,0.007
2.419,-1.512,9.612,-0.005,0.004,0.003
2.455,-1.485,9.645,0.005,-0.005,0.005
2.461,-1.489,9.671,-0.008,0.004,0.009
2.433,-1.473,9.62,-0.013,0.005,0.01
2.453,-1.487,9.643,-0.011,0,0.008
2.458,-1.522,9.583,-0.014,0.006,0.009
2.436,-1.539,9.553,-0.005,0,0.004
2.462,-1.56,9.601,-0.004,-0.002,0.004
2.448,-1.547,9.623,-0.007,-0.003,0.015
2.458,-1.497,9.656,-0.002,-0.004,0.014
2.468,-1.494,9.559,0,-0.003,0.016
2.456,-1.489,9.574,-0.001,-0.006,0.013
2.462,-1.513,9.5,-0.006,-0.004,0.006
2.441,-1.52,9.576,-0.01,-0.001,0.003
2.458,-1.531,9.56,-0.004,-0.005,0.003
2.465,-1.532,9.61,-0.008,0.006,0.005
2.476,-1.553,9.605,-0.017,0.019,0.013
2.468,-1.555,9.585,-0.017,0.013,0.009
2.445,-1.518,9.569,-0.025,0.016,0.01
2.477,-1.506,9.549,-0.027,0.017,0.015
2.457,-1.509,9.56,-0.02,0.012,0.01
2.465,-1.512,9.534,-0.009,0.007,0.007
2.492,-1.535,9.557,-0.004,0.007,0.004
2.471,-1.534,9.543,0.006,0.003,0.004
2.461,-1.541,9.562,0,0.005,0.001
2.458,-1.522,9.518,-0.009,0.01,0.002
2.487,-1.475,9.546,-0.014,0.015,0.004
2.489,-1.477,9.579,-0.007,0.009,0.004
2.476,-1.485,9.627,0,0.003,0.001
2.445,-1.483,9.531,0.005,-0.001,0.004
2.481,-1.481,9.583,0.005,0.005,0.003
2.474,-1.476,9.527,-0.001,0.01,0.006
2.477,-1.501,9.594,-0.002,0.011,0.007
2.486,-1.516,9.584,-0.005,0.01,0.014
2.491,-1.524,9.608,0.006,0.002,0.01
2.486,-1.51,9.575,-0.002,0.011,0.013
2.496,-1.503,9.581,0.001,0.009,0.011
2.475,-1.512,9.572,0.005,0.006,0.01
2.526,-1.534,9.574,0.003,0.01,0.013
2.497,-1.532,9.618,0.002,0.009,0.009
2.493,-1.516,9.614,0.009,-0.001,0.005
2.461,-1.487,9.578,0.004,0.005,0.013
2.472,-1.452,9.546,0.007,0.008,0.016
2.48,-1.459,9.548,0.007,0.01,0.014
2.452,-1.454,9.607,0.011,0.007,0.009
2.462,-1.471,9.616,0.009,0.008,0.01
2.458,-1.473,9.635,0.003,0.012,0.009
2.462,-1.478,9.623,0.004,0.009,0.014
2.45,-1.482,9.627,0.007,0.012,0.015
2.45,-1.523,9.576,0.011,0.014,0.018
2.486,-1.552,9.588,0.006,0.015,0.025
2.462,-1.567,9.598,0.01,0.005,0.026
2.465,-1.58,9.612,-0.007,0.01,0.028
2.454,-1.567,9.622,-0.012,0.007,0.03
2.469,-1.533,9.605,-0.004,-0.001,0.028
2.451,-1.526,9.601,-0.009,0.008,0.031
2.453,-1.552,9.572,-0.004,0.006,0.028
2.429,-1.564,9.644,0.005,0,0.019
2.444,-1.58,9.63,0.009,-0.004,0.014
2.46,-1.555,9.631,0.012,-0.008,0.006
2.424,-1.51,9.641,-0.005,0.003,0.006
2.422,-1.528,9.632,0.006,-0.014,0.001
2.396,-1.525,9.624,-0.006,-0.001,-0.003
2.443,-1.552,9.627,-0.004,-0.004,-0.004
2.427,-1.52,9.627,-0.002,-0.008,-0.002
2.442,-1.502,9.652,-0.01,0,0.009
2.436,-1.527,9.625,-0.003,-0.007,0.012
2.414,-1.518,9.638,-0.01,0.001,0.011
2.416,-1.49,9.635,-0.005,-0.003,0.004
2.407,-1.479,9.553,-0.012,0.005,0.009
2.413,-1.452,9.605,-0.011,0.008,0.01

2.417,-1.428,9.583,0.001,0.012,0.01
2.403,-1.432,9.543,-0.004,0.027,0.013
2.445,-1.469,9.576,0.006,0.021,0.012
2.438,-1.501,9.585,0.004,0.018,0.011
2.455,-1.519,9.634,0.011,0.004,0.006
2.428,-1.473,9.666,-0.006,0.017,0.015
2.427,-1.477,9.628,-0.003,0.013,0.016
2.452,-1.486,9.655,-0.004,0.014,0.016
2.454,-1.49,9.625,0.003,0.008,0.012
2.46,-1.499,9.613,0.003,0.005,0.008
2.472,-1.493,9.65,0.002,0.005,0.007
2.467,-1.491,9.605,0,0.005,0.006
2.476,-1.452,9.645,-0.003,0.005,0.007
2.453,-1.45,9.623,-0.001,0.004,0.002
2.465,-1.442,9.641,0.001,0.008,0
2.455,-1.445,9.639,0.002,0.007,-0.001
2.456,-1.435,9.679,-0.002,0.005,-0.004
2.468,-1.458,9.627,-0.005,0,-0.002
2.442,-1.431,9.633,-0.015,0.008,0.003
2.403,-1.392,9.608,-0.014,0.009,0.005
2.454,-1.391,9.623,0,-0.002,0.01
2.418,-1.366,9.648,0.002,-0.001,0.013
2.447,-1.374,9.663,0.009,-0.009,0.012
2.441,-1.383,9.647,0.001,-0.005,0.012
2.436,-1.421,9.584,-0.009,0.003,0.012
2.444,-1.426,9.602,-0.011,0.001,0.013
2.416,-1.431,9.573,-0.015,0.002,0.009
2.436,-1.435,9.607,-0.009,0.003,0.007
2.441,-1.472,9.562,0.001,0.004,0.01
2.467,-1.481,9.589,0.003,0.002,0.006
2.453,-1.491,9.568,-0.004,0.003,0.012
2.45,-1.452,9.58,0.004,-0.011,0.009
2.464,-1.491,9.527,-0.001,-0.008,0.004
2.461,-1.489,9.516,-0.003,-0.008,-0.001
2.436,-1.478,9.525,-0.003,-0.005,-0.007
2.464,-1.483,9.539,-0.004,-0.001,-0.006
2.453,-1.46,9.543,0.009,-0.008,-0.011
2.458,-1.461,9.512,0.015,-0.011,-0.009
2.45,-1.465,9.526,0.017,-0.01,-0.007
2.468,-1.447,9.525,0.013,-0.005,-0.009
2.458,-1.47,9.544,0.011,-0.009,-0.009
2.461,-1.473,9.53,0.003,-0.005,-0.004
2.485,-1.433,9.585,0.005,-0.006,-0.003
2.51,-1.414,9.602,0.003,0.004,-0.002
2.484,-1.399,9.596,0.009,0.002,-0.001
2.47,-1.39,9.642,0.013,0,0
2.483,-1.404,9.65,0.011,0.005,0.003
2.482,-1.415,9.673,0.016,-0.001,-0.001
2.46,-1.391,9.647,0.003,0.012,0
2.487,-1.375,9.659,0.007,0.01,0.001
2.461,-1.398,9.65,0.001,0.015,0.004
2.468,-1.416,9.694,0.002,0.013,0.004
2.445,-1.407,9.697,-0.001,0.01,0.01
2.439,-1.411,9.689,-0.009,0.018,0.015
2.451,-1.378,9.734,0.002,0.008,0.016
2.472,-1.42,9.686,0,0.009,0.017
2.451,-1.454,9.712,-0.004,0.009,0.016
2.448,-1.501,9.662,0.002,0.001,0.011
2.441,-1.477,9.695,-0.001,0.001,0.007
2.458,-1.473,9.651,0.005,-0.012,0.01
2.458,-1.48,9.671,-0.002,-0.007,0.011
2.463,-1.503,9.616,0.001,-0.005,0.006
2.435,-1.507,9.611,0.006,-0.009,0
2.416,-1.496,9.573,-0.006,-0.006,0
2.444,-1.483,9.603,0.004,-0.017,-0.003
2.458,-1.464,9.575,-0.006,-0.006,-0.002
2.422,-1.454,9.548,0,-0.015,-0.002
2.431,-1.448,9.551,0.005,-0.018,-0.006
2.422,-1.431,9.529,0.005,-0.012,-0.011
2.428,-1.404,9.521,0.005,-0.014,-0.01
2.426,-1.41,9.526,-0.006,-0.004,-0.004
2.436,-1.407,9.585,0.002,-0.009,-0.01
2.407,-1.386,9.494,0.006,-0.013,-0.01
2.419,-1.371,9.572,-0.01,0.008,-0.005
2.445,-1.365,9.558,-0.004,0.003,0
2.47,-1.376,9.57,-0.001,0.003,-0.002
2.449,-1.379,9.558,-0.007,0.015,0.001
2.463,-1.372,9.546,0.003,0.007,-0.001
2.476,-1.377,9.587,0.001,0.009,0.004
2.49,-1.387,9.576,0.002,0.007,0.002
2.472,-1.41,9.57,0,0.013,-0.001
2.483,-1.384,9.558,0.005,0.012,-0.002
2.487,-1.401,9.633,0,0.017,0.003
2.493,-1.414,9.636,0.007,0.009,0
2.494,-1.424,9.687,-0.002,0.008,-0.003
2.475,-1.434,9.643,0.002,-0.002,-0.002
2.462,-1.425,9.643,-0.001,0.003,-0.003
2.466,-1.439,9.565,0.009,-0.006,-0.006
2.487,-1.437,9.632,0.015,-0.007,-0.007
2.491,-1.451,9.614,0.02,-0.007,-0.005
2.485,-1.463,9.654,0.022,-0.01,-0.004
2.461,-1.484,9.666,0.014,-0.009,-0.009
2.486,-1.482,9.645,0.001,-0.005,-0.01
2.481,-1.464,9.644,0.002,-0.01,-0.007
2.477,-1.445,9.623,-0.004,0,-0.005
2.493,-1.433,9.64,-0.005,0.007,-0.006
2.487,-1.465,9.618,0.002,-0.002,-0.003
2.509,-1.47,9.679,0.008,-0.01,0.001
2.487,-1.471,9.658,0.004,-0.008,-0.001
2.495,-1.437,9.672,-0.004,-0.002,0
2.485,-1.412,9.584,-0.015,0.005,0.003
2.524,-1.416,9.64,-0.018,0.008,0.002
2.521,-1.425,9.637,-0.006,0,-0.001
2.478,-1.414,9.625,-0.001,-0.003,-0.009

2.406,-1.31,9.639,-0.009,0.004,-0.007
2.425,-1.306,9.683,0.001,-0.006,-0.008
2.422,-1.308,9.634,-0.004,0.001,-0.01
2.421,-1.288,9.673,-0.007,0.01,-0.005
2.432,-1.319,9.675,0.006,0.002,-0.007
2.449,-1.34,9.67,0.005,0.001,-0.007
2.441,-1.3,9.663,-0.009,0.008,-0.002
2.427,-1.283,9.638,-0.009,0.002,-0.003
2.424,-1.274,9.636,-0.012,0.003,-0.002
2.444,-1.3,9.628,-0.004,-0.003,-0.007
2.456,-1.329,9.607,-0.014,0.014,-0.005
2.436,-1.299,9.627,-0.006,0.009,-0.006
2.404,-1.298,9.55,-0.004,0.01,-0.004
2.426,-1.301,9.583,0.003,0.002,0
2.437,-1.29,9.582,0.005,0.002,-0.002
2.422,-1.288,9.597,-0.001,0.006,0.003
2.424,-1.291,9.61,-0.007,0.011,0.007
2.43,-1.286,9.668,-0.007,0.012,0.005
2.432,-1.31,9.614,-0.017,0.026,0.008
2.43,-1.321,9.632,-0.014,0.026,0.011
2.393,-1.327,9.641,-0.017,0.031,0.014
2.392,-1.321,9.599,-0.008,0.021,0.016
2.403,-1.311,9.664,-0.009,0.021,0.017
2.414,-1.321,9.639,-0.017,0.027,0.014
2.422,-1.312,9.648,-0.005,0.016,0.005
2.403,-1.307,9.659,-0.005,0.017,0.002
2.392,-1.298,9.643,-0.006,0.021,-0.003
2.409,-1.315,9.656,-0.002,0.024,-0.006
2.394,-1.324,9.662,-0.008,0.029,-0.004
2.409,-1.293,9.738,-0.002,0.023,-0.002
2.409,-1.283,9.728,-0.006,0.025,0.004
2.423,-1.277,9.737,0.004,0.011,0
2.417,-1.293,9.72,-0.012,0.024,0.002
2.391,-1.298,9.674,-0.021,0.028,0.002
2.41,-1.298,9.71,-0.022,0.023,-0.001
2.406,-1.292,9.697,-0.028,0.031,0.005
2.417,-1.34,9.706,-0.022,0.027,0.009
2.43,-1.354,9.727,-0.006,0.009,0.006
2.425,-1.343,9.71,-0.015,0.01,0.011
2.442,-1.356,9.675,-0.013,0.003,0.012
2.444,-1.352,9.642,-0.018,0.003,0.01
2.441,-1.353,9.633,-0.022,0.004,0.007
2.429,-1.354,9.599,-0.018,0.003,0
2.44,-1.363,9.602,-0.006,-0.005,-0.007
2.419,-1.376,9.606,0,-0.016,-0.014
2.415,-1.361,9.582,-0.016,0.002,-0.009
2.427,-1.34,9.588,-0.008,-0.002,-0.009
2.409,-1.317,9.572,-0.015,0.004,-0.004
2.41,-1.284,9.627,-0.015,0.001,-0.004
2.385,-1.277,9.572,-0.016,0.006,0
2.372,-1.289,9.554,-0.004,-0.002,-0.004
2.368,-1.253,9.582,-0.008,0.009,-0.004
2.393,-1.244,9.59,-0.002,0.008,-0.001
2.362,-1.255,9.579,0.013,-0.007,0
2.377,-1.28,9.591,0.01,-0.003,0.001
2.371,-1.279,9.562,0.005,0.004,0.004
2.385,-1.246,9.605,0.002,0.005,0.005
2.389,-1.24,9.576,-0.011,0.02,0.01
2.397,-1.308,9.586,-0.017,0.028,0.008
2.408,-1.313,9.626,-0.011,0.026,0.007
2.393,-1.327,9.656,-0.013,0.028,0.009
2.4,-1.345,9.616,0.004,0.014,0.007
2.396,-1.33,9.644,0.004,0.02,0.01
2.413,-1.334,9.639,0,0.026,0.012
2.429,-1.348,9.666,-0.006,0.029,0.016
2.388,-1.34,9.669,0.006,0.014,0.015
2.421,-1.337,9.675,0.008,0.01,0.008
2.388,-1.326,9.68,-0.005,0.019,0.01
2.412,-1.314,9.712,0.001,0.01,0.002
2.412,-1.312,9.7,-0.007,0.016,0
2.414,-1.306,9.711,-0.008,0.016,0.001
2.388,-1.291,9.688,-0.004,0.013,0
2.396,-1.303,9.696,-0.003,0.012,-0.002
2.377,-1.307,9.672,0.007,0.003,-0.002
2.351,-1.284,9.66,0.016,-0.006,-0.002
2.362,-1.267,9.663,0.017,-0.007,0.002
2.386,-1.286,9.702,0.008,-0.004,0.003
2.4,-1.296,9.693,0.005,-0.002,0.009
2.357,-1.32,9.699,0.012,-0.013,0.002
2.378,-1.336,9.685,-0.002,-0.001,0.004
2.397,-1.33,9.663,0.004,-0.005,0.005
2.384,-1.347,9.584,-0.001,0.005,0.01
2.402,-1.362,9.589,0.009,-0.001,0.011
2.391,-1.374,9.573,0,0.01,0.011
2.381,-1.371,9.591,0.01,-0.002,0.01
2.369,-1.357,9.526,0.007,0.005,0.009
2.367,-1.358,9.564,0.01,0.003,0.005
2.384,-1.32,9.584,0.016,0.003,0.001
2.382,-1.338,9.595,0.012,0.007,0.001
2.378,-1.328,9.601,0.006,0.015,-0.001
2.384,-1.326,9.64,0.011,0.012,-0.002
2.377,-1.324,9.6,0.005,0.013,0.002
2.401,-1.296,9.621,0.008,0.011,0.002
2.352,-1.265,9.603,0.002,0.019,0.006
2.385,-1.274,9.585,0.017,0.009,0.006
2.4,-1.289,9.606,0.021,0.011,0.006
2.399,-1.319,9.599,0.022,0.014,0.005
2.445,-1.28,9.645,0.019,0.017,0.006
2.435,-1.273,9.606,0.016,0.02,0.012
2.397,-1.246,9.558,0.016,0.02,0.011
2.391,-1.228,9.565,0.009,0.028,0.01
2.376,-1.232,9.582,0.014,0.023,0.006
2.394,-1.214,9.582,0.025,0.016,0.001
2.393,-1.188,9.644,0.038,0.007,-0.003

0.607,-1.656,9.827,0.045,-0.056,-0.103
0.588,-1.595,9.796,0.04,-0.051,-0.105
0.558,-1.544,9.714,0.05,-0.058,-0.099
0.52,-1.433,9.71,0.064,-0.057,-0.085
0.496,-1.461,9.721,0.091,-0.067,-0.077
0.519,-1.506,9.726,0.102,-0.071,-0.082
0.536,-1.485,9.777,0.092,-0.057,-0.086
0.515,-1.432,9.763,0.095,-0.056,-0.087
0.531,-1.391,9.74,0.093,-0.048,-0.09
0.551,-1.381,9.669,0.077,-0.031,-0.091
0.539,-1.389,9.591,0.074,-0.019,-0.095
0.571,-1.389,9.692,0.069,-0.006,-0.098
0.578,-1.394,9.697,0.074,-0.006,-0.091
0.653,-1.418,9.811,0.08,-0.005,-0.077
0.652,-1.431,9.838,0.086,-0.002,-0.069
0.685,-1.455,9.872,0.089,0,-0.06
0.743,-1.439,9.932,0.087,0.003,-0.06
0.732,-1.414,9.945,0.085,0.001,-0.061
0.794,-1.398,9.988,0.086,-0.006,-0.059
0.788,-1.384,9.997,0.071,0.008,-0.053
0.832,-1.439,10,0.075,0.002,-0.05
0.857,-1.482,10.078,0.076,0.002,-0.049
0.85,-1.54,10.103,0.064,0.017,-0.045
0.819,-1.535,10.101,0.063,0.011,-0.044
0.823,-1.509,10.191,0.058,0.013,-0.035
0.825,-1.533,10.235,0.042,0.018,-0.022
0.831,-1.556,10.234,0.035,0.018,-0.018
0.87,-1.605,10.216,0.019,0.023,-0.013
0.861,-1.598,10.205,0.019,0.021,-0.008
0.839,-1.582,10.167,0.015,0.029,0.004
0.816,-1.551,10.11,0.018,0.031,0.02
0.788,-1.571,10.118,0.027,0.022,0.029
0.79,-1.556,10.135,0.016,0.027,0.038
0.789,-1.545,10.112,0.002,0.021,0.035
0.796,-1.541,10.103,-0.014,0.012,0.032
0.793,-1.483,10.133,-0.024,0.01,0.027
0.737,-1.421,10.053,-0.012,-0.002,0.02
0.71,-1.423,10.013,-0.013,0.002,0.015
0.746,-1.44,9.993,-0.004,-0.008,0.005
0.734,-1.412,10.015,0.003,-0.018,-0.005
0.727,-1.416,9.97,0.002,-0.023,-0.011
0.799,-1.364,9.976,0.011,-0.037,-0.019
0.775,-1.314,9.932,0.016,-0.047,-0.023
0.808,-1.338,9.897,0.017,-0.052,-0.026
0.775,-1.348,9.874,0.028,-0.062,-0.027
0.755,-1.343,9.844,0.033,-0.063,-0.031
0.733,-1.338,9.781,0.044,-0.073,-0.034
0.773,-1.33,9.824,0.046,-0.072,-0.031
0.751,-1.316,9.767,0.045,-0.07,-0.026
0.793,-1.289,9.765,0.049,-0.073,-0.027
0.791,-1.319,9.775,0.047,-0.066,-0.026
0.776,-1.355,9.791,0.042,-0.062,-0.023
0.776,-1.4,9.792,0.052,-0.076,-0.027
0.764,-1.4,9.794,0.056,-0.081,-0.023
0.778,-1.413,9.782,0.047,-0.07,-0.015
0.8,-1.435,9.706,0.046,-0.064,-0.005
0.876,-1.434,9.739,0.053,-0.06,0.001
0.927,-1.447,9.714,0.061,-0.058,0.007
0.98,-1.449,9.709,0.069,-0.053,0.013
1.004,-1.436,9.687,0.075,-0.042,0.022
1.035,-1.434,9.696,0.087,-0.048,0.024
1.055,-1.442,9.704,0.081,-0.044,0.025
1.087,-1.439,9.667,0.067,-0.032,0.027
1.106,-1.392,9.691,0.059,-0.022,0.025
1.154,-1.369,9.696,0.052,-0.014,0.024
1.163,-1.351,9.716,0.036,-0.003,0.019
1.13,-1.303,9.805,0.018,0.01,0.015
1.145,-1.293,9.797,0.006,0.018,0.016
1.137,-1.273,9.821,0.008,0.017,0.013
1.061,-1.261,9.796,0.007,0.018,0.012
1.014,-1.213,9.791,0.019,0.002,0.012
1.044,-1.174,9.8,0.011,0.006,0.014
1.034,-1.142,9.808,0.006,0.008,0.015
0.96,-1.117,9.827,0.008,0.002,0.014
0.912,-1.072,9.842,0.016,-0.006,0.008
0.897,-1.029,9.863,0.021,-0.009,0.007
0.853,-1.038,9.835,0.031,-0.015,0.007
0.829,-1.058,9.817,0.046,-0.025,0.005
0.777,-1.056,9.781,0.042,-0.021,0.005
0.797,-1.063,9.801,0.041,-0.021,0.005
0.808,-1.083,9.8,0.037,-0.023,0.014
0.799,-1.098,9.866,0.027,-0.025,0.02
0.781,-1.089,9.864,0.02,-0.023,0.025
0.801,-1.058,9.821,0.012,-0.018,0.026
0.789,-1.07,9.823,0.009,-0.011,0.029
0.776,-1.12,9.801,0.022,-0.013,0.027
0.775,-1.153,9.83,0.029,-0.008,0.027
0.797,-1.204,9.889,0.023,0.004,0.028
0.805,-1.229,9.888,0.022,0.004,0.028
0.797,-1.213,9.901,0.024,0,0.027
0.804,-1.231,9.89,0.024,0,0.026
0.781,-1.24,9.93,0.019,0.011,0.026
0.774,-1.31,9.888,0.008,0.028,0.026
0.793,-1.327,9.946,0.008,0.034,0.018
0.796,-1.356,9.95,0.005,0.042,0.015
0.797,-1.392,9.983,0.001,0.043,0.018
0.789,-1.398,9.983,0.002,0.036,0.02
0.783,-1.358,10.03,-0.005,0.04,0.021
0.798,-1.337,10.026,0.001,0.043,0.03
0.801,-1.384,10.015,0.006,0.03,0.021
0.798,-1.376,10.046,-0.001,0.036,0.014
0.799,-1.397,10.072,-0.008,0.042,0.016
0.814,-1.426,10.026,-0.004,0.034,0.014
0.817,-1.452,10.077,-0.007,0.029,0.009

0.916,-0.869,10.133,-0.008,-0.002,-0.025
0.912,-0.938,10.084,-0.008,-0.004,-0.028
0.927,-0.988,10.061,-0.003,-0.013,-0.019
0.933,-0.999,10.057,0,-0.017,-0.007
0.94,-1,10.029,0.004,-0.023,0.011
0.921,-1.011,10.014,0.011,-0.031,0.028
0.915,-0.979,10.041,0.006,-0.03,0.037
0.925,-0.957,10.002,-0.006,-0.029,0.039
0.966,-0.949,10.012,-0.012,-0.031,0.036
0.941,-0.947,9.958,-0.023,-0.022,0.03
0.912,-0.94,9.924,-0.016,-0.026,0.021
0.968,-0.982,9.942,-0.018,-0.02,0.019
0.939,-0.982,9.971,-0.011,-0.026,0.02
0.952,-1.013,9.936,-0.013,-0.026,0.025
0.943,-0.988,9.912,-0.014,-0.02,0.03
0.943,-0.951,9.903,-0.017,-0.011,0.034
0.964,-0.945,9.872,-0.017,-0.011,0.033
0.963,-0.944,9.873,-0.024,-0.004,0.031
0.931,-0.948,9.855,-0.025,-0.01,0.033
0.963,-0.906,9.885,-0.022,-0.014,0.034
0.937,-0.859,9.916,-0.026,-0.009,0.032
0.937,-0.854,9.895,-0.02,-0.011,0.026
0.927,-0.826,9.917,-0.014,-0.01,0.018
0.885,-0.823,9.847,-0.005,-0.012,0.014
0.9,-0.837,9.863,-0.001,-0.01,0.006
0.892,-0.833,9.846,0.003,-0.006,-0.002
0.881,-0.856,9.85,0.011,-0.011,-0.007
0.916,-0.866,9.903,0.003,-0.001,-0.004
0.895,-0.869,9.923,0.004,0,-0.003
0.89,-0.868,9.926,-0.001,0.004,0
0.868,-0.867,9.889,-0.006,0.012,0.001
0.854,-0.876,9.869,-0.005,0.01,0.003
0.851,-0.896,9.911,-0.012,0.012,0.007
0.86,-0.901,9.968,-0.021,0.014,0.007
0.828,-0.921,9.955,-0.027,0.02,0.004
0.844,-0.954,9.942,-0.019,0.015,0
0.828,-0.957,9.953,-0.016,0.019,-0.003
0.856,-0.988,9.904,-0.01,0.019,-0.007
0.833,-1.033,9.968,-0.006,0.018,-0.011
0.84,-1.054,9.975,-0.001,0.01,-0.011
0.838,-1.071,10.006,-0.008,0.008,-0.008
0.836,-1.047,10.013,-0.011,0.007,-0.008
0.87,-1.052,9.97,-0.012,0.01,-0.005
0.883,-1.061,9.962,-0.01,0.015,-0.007
0.894,-1.079,9.936,-0.006,0.013,-0.008
0.914,-1.068,9.957,0.001,0.007,-0.012
0.888,-1.049,9.956,-0.006,0.013,-0.006
0.881,-1.046,9.951,-0.004,0.009,-0.002
0.91,-1.043,9.988,-0.005,0.011,-0.008
0.915,-1.023,9.956,-0.002,0.004,-0.01
0.902,-1.001,9.928,-0.005,0.008,-0.01
0.942,-0.983,9.903,-0.006,0.017,-0.009
0.987,-0.942,9.913,0.002,0.011,-0.008
0.956,-0.899,9.962,0.004,0.009,0
0.925,-0.891,9.958,0.009,0.004,0.004
0.908,-0.877,9.974,0.008,0.006,0.007
0.911,-0.873,9.974,-0.001,0.009,0.008
0.884,-0.825,10.039,-0.015,0.012,0.012
0.863,-0.817,10.026,-0.022,0.011,0.015
0.859,-0.8,9.985,-0.024,0.011,0.021
0.886,-0.82,9.956,-0.016,0.012,0.024
0.891,-0.862,9.958,-0.005,0.008,0.025
0.877,-0.891,9.99,0.01,-0.012,0.026
0.859,-0.916,9.966,0.009,-0.011,0.027
0.874,-0.906,9.973,0.003,-0.01,0.031
0.871,-0.934,9.895,-0.004,-0.006,0.036
0.918,-0.929,9.92,-0.004,-0.009,0.037
0.89,-0.983,9.866,-0.008,-0.004,0.035
0.915,-0.997,9.884,-0.003,-0.01,0.029
0.874,-1.007,9.862,0.004,-0.014,0.022
0.899,-0.98,9.926,0.004,-0.012,0.017
0.87,-0.947,9.894,0.005,-0.009,0.013
0.889,-0.949,9.842,0.005,-0.005,0.007
0.897,-0.979,9.894,0.004,0.003,0.003
0.865,-1.016,9.871,0.015,-0.003,-0.003
0.842,-1.001,9.884,0.008,-0.001,-0.001
0.84,-0.96,9.888,0.003,-0.001,0
0.817,-0.91,9.905,0.01,-0.005,-0.003
0.823,-0.888,9.891,0.012,-0.003,-0.007
0.838,-0.875,9.905,0.01,0.008,-0.007
0.825,-0.894,9.924,0.019,0.007,-0.012
0.82,-0.923,9.949,0.021,0.01,-0.015
0.82,-0.947,9.934,0.019,0.007,-0.015
0.854,-0.91,10.006,0.011,0.015,-0.011
0.843,-0.943,9.98,0.009,0.016,-0.009
0.85,-0.967,10.007,0.013,0.012,-0.006
0.849,-0.979,10.02,0.011,0.013,-0.001
0.827,-1.016,9.956,0.006,0.013,0.01
0.875,-1.021,9.993,0,0.011,0.015
0.915,-1.019,9.975,-0.008,0.017,0.015
0.924,-1.007,9.953,0.001,0.011,0.012
0.894,-0.976,9.956,0.005,0.011,0.011
0.938,-0.987,9.964,0.013,0.005,0.002
0.932,-0.957,9.969,0.011,0.002,-0.006
0.942,-0.956,9.953,0.006,0.001,-0.015
0.94,-0.936,9.996,0.004,-0.003,-0.022
0.94,-0.926,9.954,0.009,-0.009,-0.025
0.938,-0.929,9.984,0.015,-0.012,-0.029
0.913,-0.942,9.923,0.014,-0.008,-0.029
0.91,-0.943,9.872,0.013,-0.006,-0.03
0.913,-0.915,9.91,0.012,-0.003,-0.03
0.897,-0.905,9.881,0.008,0.002,-0.027
0.887,-0.91,9.919,0.015,-0.002,-0.028
0.863,-0.918,9.922,0.004,0.01,-0.025

1.049,-0.76,9.899,-0.002,0.004,0.002
1.042,-0.757,9.91,0.003,0.004,0.001
1.06,-0.767,9.919,0.003,0.009,0.008
1.049,-0.787,9.937,0.004,0.008,0.012
1.056,-0.75,9.984,0.002,0.005,0.007
1.048,-0.743,9.912,-0.013,0.012,0.009
1.049,-0.766,9.927,-0.011,0.012,0.008
1.075,-0.764,9.911,-0.008,0.015,0.007
1.088,-0.798,9.913,0.002,0.013,0.005
1.09,-0.792,9.919,0.012,0.004,0.002
1.052,-0.774,9.913,0.009,0.006,0.001
1.074,-0.762,9.936,-0.002,0.017,0.004
1.067,-0.743,9.914,-0.005,0.017,0.002
1.056,-0.739,9.98,-0.007,0.017,-0.001
1.05,-0.728,10.004,-0.008,0.016,0.003
1.05,-0.724,9.972,-0.014,0.021,0.007
1.056,-0.674,9.96,-0.009,0.017,0.005
1.079,-0.68,9.929,-0.002,0.016,0.003
1.064,-0.678,9.956,0.004,0.015,0.003
1.079,-0.725,9.964,0.008,0.008,-0.004
1.044,-0.72,10.001,-0.002,0.009,-0.004
1.073,-0.691,9.972,0.001,-0.001,-0.004
1.056,-0.67,9.96,0.002,0.001,0.002
1.044,-0.676,9.929,0.011,0,0.008
1.077,-0.697,9.944,0.008,0.004,0.008
1.049,-0.735,9.941,0.011,0,0.006
1.055,-0.715,9.937,0.008,0.002,0.008
1.071,-0.727,9.906,0.007,-0.001,0.011
1.073,-0.724,9.94,0.009,-0.006,0.007
1.061,-0.73,9.92,0,0.005,0.007
1.079,-0.729,9.962,0,0.007,0.003
1.104,-0.745,9.939,-0.004,0.009,0.008
1.075,-0.768,9.957,-0.008,0.011,0.015
1.08,-0.769,9.919,-0.007,0.008,0.009
1.08,-0.768,9.979,-0.003,0.009,0.005
1.066,-0.764,9.967,-0.006,0.01,0.007
1.095,-0.765,10,0,0.003,0.004
1.067,-0.734,9.966,-0.001,0.007,0.004
1.067,-0.758,9.955,0.005,-0.002,0.004
1.065,-0.75,9.964,-0.006,0.002,0.01
1.07,-0.728,10.022,-0.002,0.002,0.003
1.028,-0.717,10.006,-0.004,0.005,0
1.074,-0.712,10.04,-0.006,0.003,0.006
1.078,-0.712,10.021,-0.003,-0.003,0.005
1.054,-0.705,9.966,-0.005,0.001,0.003
1.051,-0.717,9.938,-0.001,-0.001,0.005
1.073,-0.707,9.923,0.004,-0.004,0.008
1.056,-0.678,9.917,0.005,-0.006,0.011
1.052,-0.715,9.955,0.006,-0.009,0.009
1.07,-0.729,9.906,0.007,-0.011,0.007
1.078,-0.693,9.933,-0.002,-0.004,0.005
1.088,-0.694,9.923,-0.002,-0.005,0.001
1.086,-0.707,9.917,-0.01,0.002,0.01
1.071,-0.735,9.886,-0.001,0,0.011
1.099,-0.761,9.915,0.002,0,0.013
1.065,-0.772,9.883,-0.006,0.002,0.014
1.083,-0.747,9.933,-0.007,-0.003,0.012
1.089,-0.76,9.948,-0.007,-0.004,0.011
1.102,-0.742,9.947,-0.006,-0.005,0.011
1.097,-0.737,9.952,-0.002,-0.007,0.008
1.12,-0.758,9.948,0.002,-0.011,0.002
1.099,-0.738,9.935,0.006,-0.016,0
1.108,-0.73,9.941,0.007,-0.014,0.001
1.119,-0.733,10.002,0.01,-0.016,-0.005
1.08,-0.716,9.968,0.003,-0.016,-0.004
1.104,-0.714,9.934,0,-0.013,-0.004
1.086,-0.696,9.931,0.005,-0.012,-0.005
1.069,-0.715,9.879,0.004,-0.009,-0.003
1.082,-0.714,9.933,0,-0.002,0
1.07,-0.724,9.88,-0.001,-0.002,0.009
1.066,-0.702,9.958,-0.001,-0.002,0.012
1.051,-0.689,9.951,-0.009,0.002,0.016
1.082,-0.688,9.962,-0.019,0.014,0.021
1.085,-0.725,9.976,-0.01,0.012,0.018
1.057,-0.752,9.942,-0.009,0.013,0.016
1.07,-0.748,9.982,-0.004,0.005,0.017
1.108,-0.766,9.963,-0.009,0.006,0.022
1.069,-0.758,10.029,-0.014,0.01,0.021
1.074,-0.773,10.012,-0.007,0,0.018
1.089,-0.768,10.01,-0.016,0.003,0.018
1.089,-0.738,10.034,-0.012,0.001,0.012
1.076,-0.748,9.998,-0.008,0.001,0.006
1.084,-0.736,9.985,-0.006,0,0.007
1.076,-0.758,9.967,-0.004,-0.004,0.004
1.076,-0.785,9.967,-0.004,-0.01,0.001
1.067,-0.779,9.979,-0.016,-0.002,0.005
1.055,-0.74,9.991,-0.016,-0.004,0.004
1.078,-0.736,9.962,-0.013,-0.009,0.009
1.032,-0.727,9.939,-0.012,-0.015,0.007
1.032,-0.727,9.935,-0.021,-0.003,0.005
1.036,-0.726,9.95,-0.024,0.004,0.004
1.058,-0.752,9.905,-0.025,-0.001,0.004
1.086,-0.717,9.922,-0.012,-0.01,0.002
1.073,-0.74,9.916,-0.018,0,0
1.095,-0.761,9.935,-0.018,-0.002,0
1.085,-0.772,9.94,-0.018,-0.015,-0.005
1.059,-0.762,9.858,-0.022,-0.011,-0.001
1.116,-0.738,9.875,-0.016,-0.003,-0.003
1.1,-0.74,9.809,-0.009,0.001,-0.005
1.087,-0.731,9.824,-0.006,0.005,-0.006
1.1,-0.745,9.887,-0.008,0.008,-0.004
1.082,-0.777,9.876,-0.001,-0.004,-0.012
1.107,-0.749,9.927,-0.007,-0.002,-0.013
1.111,-0.704,9.968,-0.01,-0.005,-0.014

1.193,-0.7,9.944,0.001,0.009,0.015
1.187,-0.694,9.948,0.003,0.008,0.012
1.184,-0.705,9.968,0.004,0.005,0.007
1.186,-0.715,9.954,0.003,0.005,0.007
1.197,-0.721,9.975,0.002,0.006,0.008
1.17,-0.704,9.969,0.002,0.006,0.011
1.202,-0.705,10.005,0.002,0,0.01
1.152,-0.702,9.978,-0.004,0.005,0.012
1.165,-0.698,9.972,0.002,0.003,0.011
1.142,-0.711,9.964,0.003,0.002,0.014
1.151,-0.702,9.986,0.001,0.001,0.012
1.171,-0.672,9.958,-0.004,0.003,0.013
1.128,-0.673,9.969,0.001,-0.004,0.009
1.189,-0.691,9.983,-0.006,0.004,0.009
1.136,-0.678,9.949,-0.012,0.006,0.005
1.151,-0.673,9.949,-0.018,0.013,0.006
1.157,-0.662,9.95,-0.008,0.006,0.005
1.133,-0.646,9.911,0.005,-0.006,0.005
1.158,-0.646,9.952,-0.002,0.002,0.006
1.14,-0.673,9.929,-0.006,0.007,0.006
1.152,-0.693,9.909,-0.007,0.006,0.005
1.173,-0.693,9.911,-0.011,0.009,0.004
1.165,-0.712,9.885,-0.004,0.004,0.002
1.152,-0.687,9.896,-0.003,0.002,0.004
1.17,-0.71,9.902,-0.007,0.007,0.005
1.18,-0.706,9.932,-0.004,0.005,0.006
1.163,-0.722,9.92,-0.01,0.012,0.008
1.151,-0.714,9.881,-0.005,0.006,0.007
1.199,-0.707,9.879,0.007,0,0.003
1.201,-0.684,9.895,0.005,0.006,0.004
1.211,-0.69,9.911,0.001,0.011,0.005
1.182,-0.7,9.913,-0.002,0.012,0.005
1.181,-0.696,9.926,-0.008,0.016,0.005
1.151,-0.662,9.941,-0.007,0.013,0.005
1.169,-0.634,9.941,0.005,0.001,0.003
1.171,-0.623,9.964,-0.002,0.014,0.007
1.16,-0.634,9.936,0.001,0.007,0.008
1.156,-0.649,9.969,-0.002,0.008,0.004
1.153,-0.662,9.945,0,0.004,0.003
1.155,-0.648,9.979,0,0.002,0.004
1.171,-0.667,9.947,0.004,0.003,0.005
1.168,-0.669,9.964,0.005,0.001,0.008
1.153,-0.667,9.95,0.01,-0.005,0.007
1.176,-0.672,9.971,0.003,0.001,0.009
1.151,-0.685,9.953,0,0,0.009
1.146,-0.719,9.965,-0.004,0.001,0.007
1.129,-0.701,9.933,-0.006,0,0.007
1.171,-0.691,9.906,-0.007,0,0.009
1.155,-0.699,9.933,-0.006,0.001,0.009
1.16,-0.711,9.941,0.002,-0.005,0.005
1.174,-0.722,9.918,0.008,-0.008,-0.002
1.186,-0.711,9.957,0.001,-0.004,0.001
1.164,-0.713,9.925,-0.001,-0.002,-0.004
1.174,-0.716,9.911,-0.009,0.004,-0.003
1.163,-0.696,9.954,-0.007,-0.002,0.002
1.153,-0.71,9.919,-0.011,-0.001,-0.001
1.18,-0.697,9.942,-0.015,0.006,0
1.173,-0.686,9.92,-0.01,0.003,0.002
1.17,-0.651,9.923,-0.003,-0.003,0.002
1.151,-0.635,9.908,-0.003,0.002,-0.003
1.125,-0.644,9.922,-0.001,0,-0.001
1.135,-0.652,9.909,0.002,0,-0.004
1.154,-0.659,9.936,-0.003,0.008,-0.003
1.174,-0.663,9.926,-0.001,0.008,-0.004
1.162,-0.649,9.898,-0.005,0.008,0.002
1.2,-0.658,9.932,-0.003,0.002,0.004
1.2,-0.653,9.895,-0.004,0.002,0.004
1.205,-0.647,9.94,-0.005,0.004,0.002
1.185,-0.693,9.91,-0.005,0.006,0.004
1.193,-0.698,9.97,0.007,-0.003,-0.002
1.194,-0.72,9.919,0.002,0.001,0
1.235,-0.698,9.929,-0.001,0.002,0.002
1.207,-0.688,9.875,-0.003,0.006,0.007
1.21,-0.684,9.927,0.003,0,0.006
1.221,-0.706,9.92,0.004,0,0.005
1.204,-0.73,9.918,0.001,0.002,0
1.2,-0.703,9.954,-0.002,0.002,0.001
1.195,-0.663,9.984,-0.008,0.005,0.001
1.209,-0.67,9.954,-0.002,0.003,0.004
1.207,-0.675,9.973,0.001,0.002,0.002
1.193,-0.679,9.928,0,0.003,0.001
1.203,-0.696,9.98,0.003,-0.004,0.002
1.212,-0.691,9.935,0,-0.005,0.005
1.21,-0.684,9.954,0.001,-0.002,0.002
1.207,-0.671,9.933,0.004,-0.002,0.002
1.195,-0.643,9.967,0,0.002,0.005
1.195,-0.686,9.911,-0.007,0.005,0.006
1.186,-0.665,9.933,0,-0.004,0.004
1.174,-0.671,9.91,0.001,-0.003,0.007
1.185,-0.667,9.94,0.007,-0.007,0.006
1.196,-0.677,9.912,0.001,0.001,0.008
1.192,-0.677,9.923,-0.003,0.007,0.009
1.179,-0.678,9.923,-0.007,0.009,0.009
1.205,-0.683,9.917,-0.003,0.006,0.008
1.177,-0.702,9.927,-0.006,0.012,0.011
1.171,-0.691,9.945,-0.004,0.011,0.01
1.172,-0.666,9.94,-0.01,0.014,0.008
1.199,-0.672,9.956,-0.006,0.007,0.012
1.162,-0.673,9.893,-0.003,0.004,0.01
1.193,-0.67,9.906,-0.006,0.01,0.009
1.152,-0.687,9.893,0,0.008,0.006
1.174,-0.705,9.917,0.002,0.005,0.006
1.162,-0.699,9.923,0.004,-0.001,0.005
1.173,-0.661,9.968,0,0.004,0.009

1.221,-0.581,9.947,0.021,-0.025,0.002
1.262,-0.599,9.959,0.03,-0.036,-0.004
1.248,-0.638,9.883,0.036,-0.042,-0.015
1.238,-0.645,9.95,0.039,-0.046,-0.026
1.228,-0.653,9.974,0.048,-0.058,-0.037
1.224,-0.637,9.976,0.053,-0.066,-0.042
1.245,-0.632,9.988,0.058,-0.076,-0.044
1.228,-0.647,9.986,0.047,-0.073,-0.046
1.245,-0.655,9.942,0.048,-0.073,-0.053
1.259,-0.648,9.942,0.05,-0.07,-0.053
1.257,-0.629,9.976,0.043,-0.063,-0.048
1.197,-0.615,9.932,0.031,-0.054,-0.045
1.234,-0.565,9.962,0.025,-0.047,-0.038
1.239,-0.559,9.933,0.008,-0.033,-0.029
1.221,-0.533,9.948,-0.003,-0.026,-0.024
1.218,-0.496,9.966,-0.01,-0.021,-0.014
1.209,-0.486,9.947,-0.015,-0.008,-0.008
1.209,-0.456,9.938,-0.015,-0.006,-0.003
1.18,-0.451,9.913,-0.03,0.008,0.003
1.205,-0.447,9.9,-0.036,0.018,0.006
1.216,-0.431,9.926,-0.033,0.016,0.009
1.205,-0.43,9.929,-0.032,0.018,0.007
1.241,-0.48,9.931,-0.024,0.012,-0.002
1.222,-0.485,9.91,-0.029,0.02,-0.003
1.263,-0.492,9.922,-0.03,0.024,-0.003
1.276,-0.54,9.905,-0.025,0.022,-0.003
1.279,-0.576,9.909,-0.021,0.018,-0.002
1.336,-0.616,9.929,-0.012,0.009,-0.001
1.297,-0.608,9.856,-0.014,0.011,0
1.305,-0.622,9.89,-0.013,0.002,-0.001
1.306,-0.622,9.915,-0.012,-0.006,-0.012
1.31,-0.604,9.923,0.001,-0.02,-0.022
1.325,-0.624,9.922,0.006,-0.023,-0.027
1.323,-0.62,9.876,0.008,-0.018,-0.028
1.301,-0.609,9.931,0.019,-0.026,-0.034
1.277,-0.608,9.885,0.013,-0.02,-0.038
1.28,-0.601,9.86,0.014,-0.023,-0.037
1.27,-0.566,9.925,0.009,-0.026,-0.039
1.271,-0.52,9.899,-0.005,-0.012,-0.035
1.276,-0.497,9.879,-0.01,-0.005,-0.028
1.274,-0.479,9.867,-0.007,-0.004,-0.021
1.234,-0.47,9.845,-0.002,-0.002,-0.017
1.245,-0.463,9.869,-0.001,0.004,-0.011
1.261,-0.454,9.868,-0.003,0.007,-0.006
1.263,-0.408,9.923,-0.002,0.005,-0.005
1.258,-0.406,9.919,-0.009,0.013,-0.004
1.27,-0.423,9.901,-0.014,0.027,-0.001
1.262,-0.471,9.902,-0.011,0.026,-0.002
1.276,-0.509,9.906,-0.02,0.034,0.001
1.289,-0.51,9.966,-0.016,0.028,0.008
1.314,-0.522,9.962,-0.019,0.03,0.016
1.344,-0.56,9.96,-0.024,0.037,0.02
1.303,-0.577,9.933,-0.02,0.034,0.017
1.322,-0.572,9.918,-0.017,0.031,0.02
1.315,-0.575,9.93,-0.011,0.026,0.021
1.314,-0.602,9.873,-0.013,0.027,0.016
1.336,-0.597,9.905,-0.025,0.039,0.016
1.316,-0.612,9.899,-0.016,0.028,0.011
1.31,-0.588,9.924,-0.005,0.013,0.004
1.296,-0.577,9.919,-0.007,0.014,-0.001
1.285,-0.589,9.915,-0.015,0.024,0.004
1.266,-0.584,9.877,-0.011,0.024,0.004
1.278,-0.565,9.89,-0.001,0.016,0.003
1.26,-0.556,9.864,0.004,0.015,0.007
1.27,-0.547,9.876,0.003,0.016,0.006
1.267,-0.515,9.913,0.012,0.007,0.001
1.254,-0.514,9.918,0.014,0.009,0.001
1.255,-0.518,9.98,0.005,0.018,-0.002
1.25,-0.549,9.937,0.002,0.015,-0.008
1.272,-0.538,9.961,-0.005,0.022,-0.006
1.283,-0.56,9.932,-0.003,0.021,-0.002
1.3,-0.554,9.931,0.001,0.02,-0.003
1.298,-0.566,9.908,0.003,0.02,0
1.28,-0.578,9.948,0.01,0.014,0.004
1.286,-0.576,9.953,0.005,0.015,0.004
1.294,-0.568,9.951,-0.001,0.015,0.004
1.287,-0.541,9.953,-0.004,0.015,0.005
1.301,-0.529,9.975,0.008,0.008,0.004
1.306,-0.545,9.979,0.012,0.009,0.003
1.291,-0.563,9.932,0.012,0.009,-0.004
1.276,-0.537,9.967,0.009,0.01,-0.005
1.285,-0.514,9.965,0.007,0.01,-0.006
1.255,-0.512,9.995,0.007,0.008,-0.008
1.246,-0.526,9.973,0.011,0.002,-0.007
1.271,-0.538,9.95,0.006,0.005,0.001
1.258,-0.543,9.964,0.006,0.005,0.001
1.26,-0.534,9.951,0.002,0.008,0.001
1.28,-0.533,9.991,-0.001,0.009,0.004
1.311,-0.572,9.954,-0.003,0.011,0.007
1.298,-0.564,9.978,0.002,0.003,0.007
1.287,-0.569,9.956,-0.011,0.012,0.013
1.276,-0.559,9.998,-0.014,0.011,0.012
1.268,-0.552,9.947,-0.015,0.011,0.01
1.253,-0.534,9.953,-0.012,0.007,0.009
1.252,-0.527,9.965,-0.008,0.005,0.006
1.27,-0.53,9.931,-0.012,0.012,0.005
1.25,-0.544,9.966,-0.007,0.008,0.003
1.273,-0.59,9.967,-0.005,-0.001,0.004
1.236,-0.55,9.99,-0.012,0.001,0.007
1.27,-0.542,9.918,-0.009,-0.002,0.007
1.26,-0.518,9.928,-0.007,0,0.003
1.26,-0.522,9.907,-0.009,-0.001,0.005
1.238,-0.538,9.883,-0.004,-0.001,0.005
1.238,-0.523,9.89,-0.001,-0.006,0

1.252,-0.478,9.931,-0.005,0.008,0.013
1.251,-0.477,9.923,0,0.006,0.012
1.234,-0.486,9.955,0.001,0.007,0.006
1.25,-0.491,9.929,-0.002,0.009,0.007
1.266,-0.524,9.968,-0.004,0.008,0.006
1.24,-0.512,9.923,-0.003,0.006,0.006
1.287,-0.505,9.922,-0.007,0.013,0.01
1.277,-0.498,9.911,0.002,0.009,0.008
1.295,-0.499,9.937,0.003,0.011,0.009
1.283,-0.504,9.963,0.007,0.002,0.008
1.274,-0.486,9.94,0.001,0.005,0.005
1.264,-0.442,9.959,-0.004,0.006,0.006
1.271,-0.446,9.936,0.001,0.003,0.002
1.28,-0.462,9.954,0,0.007,0.002
1.253,-0.472,9.921,-0.003,0.016,0.001
1.275,-0.476,9.937,-0.008,0.017,0.007
1.265,-0.481,9.961,-0.01,0.014,0.009
1.297,-0.47,9.991,-0.008,0.005,0.015
1.275,-0.448,9.982,-0.008,0.01,0.015
1.264,-0.459,9.932,-0.005,0.012,0.016
1.261,-0.45,9.939,-0.004,0.013,0.011
1.272,-0.455,9.939,-0.004,0.01,0.007
1.281,-0.473,9.956,-0.003,0.006,0.006
1.279,-0.462,9.967,-0.006,0.007,0.005
1.278,-0.479,9.995,-0.005,0.002,0.004
1.267,-0.498,9.963,-0.011,0.005,0.005
1.269,-0.493,10.006,-0.014,0.005,0.004
1.253,-0.496,9.992,-0.01,0.004,0.003
1.274,-0.513,9.947,-0.009,0.003,0.007
1.294,-0.521,9.998,-0.013,0.005,0.012
1.29,-0.542,9.938,-0.017,0.009,0.016
1.296,-0.513,9.967,-0.007,-0.002,0.019
1.302,-0.509,9.951,-0.009,-0.002,0.016
1.305,-0.504,9.929,-0.014,0,0.011
1.298,-0.486,9.956,-0.015,0.002,0.008
1.283,-0.47,9.925,-0.007,-0.005,0.003
1.3,-0.456,9.964,-0.003,-0.004,0.001
1.274,-0.468,9.922,-0.003,-0.006,0.005
1.262,-0.469,9.872,0.003,-0.009,0.005
1.236,-0.467,9.892,-0.001,-0.007,0.002
1.255,-0.462,9.886,-0.005,-0.007,0.004
1.235,-0.45,9.886,-0.008,-0.004,0.005
1.239,-0.455,9.857,-0.001,-0.004,0.004
1.285,-0.466,9.879,-0.003,0.003,0.006
1.269,-0.469,9.902,-0.004,0.008,0.007
1.286,-0.494,9.897,0.004,0,0.011
1.233,-0.477,9.889,-0.002,0.009,0.014
1.267,-0.502,9.881,-0.005,0.013,0.017
1.253,-0.485,9.882,-0.008,0.017,0.017
1.278,-0.496,9.895,-0.007,0.02,0.014
1.307,-0.521,9.952,-0.002,0.014,0.011
1.29,-0.521,9.947,0,0.009,0.011
1.295,-0.522,9.961,-0.003,0.015,0.013
1.263,-0.519,9.942,-0.005,0.014,0.019
1.262,-0.512,9.912,-0.007,0.015,0.016
1.262,-0.496,9.931,-0.007,0.018,0.013
1.272,-0.496,9.913,-0.002,0.011,0.008
1.254,-0.502,9.894,-0.005,0.009,0.004
1.261,-0.487,9.934,-0.009,0.008,-0.002
1.268,-0.44,9.89,-0.006,0.007,-0.003
1.214,-0.424,9.894,0.003,0.006,-0.005
1.229,-0.458,9.888,0.02,-0.007,-0.009
1.224,-0.488,9.933,0.019,-0.007,-0.014
1.212,-0.471,9.95,0.008,0,-0.013
1.206,-0.478,9.928,-0.009,0.013,-0.007
1.226,-0.465,9.94,0.002,0.002,-0.007
1.232,-0.476,9.909,0.005,0.004,-0.007
1.222,-0.523,9.944,0.008,0.003,-0.003
1.225,-0.578,9.917,0.005,0.009,-0.002
1.253,-0.556,9.972,0.002,0.011,0.002
1.269,-0.541,9.958,-0.002,0.012,0.006
1.29,-0.523,9.923,0.001,0.009,0.011
1.294,-0.504,9.946,-0.001,0.012,0.006
1.304,-0.524,9.952,0.003,0.01,0.001
1.286,-0.524,9.984,-0.006,0.018,-0.001
1.271,-0.528,9.995,-0.005,0.011,-0.004
1.279,-0.519,10.021,-0.003,0.006,-0.004
1.26,-0.49,10.017,-0.007,0.011,-0.004
1.284,-0.479,9.999,-0.006,0.013,-0.003
1.279,-0.451,10.014,-0.009,0.013,-0.001
1.303,-0.482,9.971,-0.011,0.014,0.002
1.282,-0.483,10.006,-0.011,0.013,0.005
1.248,-0.453,10.019,-0.009,0.01,0.008
1.278,-0.427,10.011,-0.013,0.013,0.011
1.286,-0.424,10.016,-0.016,0.015,0.011
1.256,-0.438,9.957,-0.012,0.008,0.012
1.282,-0.495,9.954,-0.023,0.015,0.008
1.273,-0.478,9.95,-0.022,0.008,0.007
1.301,-0.477,9.907,-0.023,0.004,0.016
1.307,-0.462,9.934,-0.012,-0.003,0.018
1.29,-0.484,9.924,-0.02,0.009,0.021
1.296,-0.513,9.925,-0.01,-0.003,0.015
1.291,-0.528,9.906,-0.007,-0.007,0.012
1.264,-0.512,9.852,-0.013,0.002,0.009
1.287,-0.492,9.868,-0.012,0,0.01
1.27,-0.473,9.873,-0.007,0.003,0.005
1.258,-0.472,9.884,0.002,0,0.006
1.24,-0.484,9.86,0.006,-0.002,0.006
1.238,-0.485,9.902,0.001,0,0.006
1.214,-0.476,9.88,-0.007,0.008,0.008
1.227,-0.456,9.876,-0.011,0.013,0.009
1.257,-0.44,9.871,-0.01,0.013,0.009
1.253,-0.434,9.895,-0.004,0.01,0.013
1.238,-0.443,9.94,0,0.011,0.016

1.317,-0.483,9.967,-0.002,0.004,-0.002
1.295,-0.485,9.979,-0.009,0.006,0.002
1.322,-0.49,9.96,-0.012,0.007,0.009
1.291,-0.496,9.881,-0.018,0.014,0.012
1.292,-0.467,9.911,-0.008,0.007,0.011
1.306,-0.487,9.946,-0.009,0.006,0.012
1.302,-0.501,9.949,-0.012,0.01,0.01
1.293,-0.505,9.965,-0.009,0.005,0.009
1.313,-0.512,9.914,-0.006,0.006,0.007
1.32,-0.485,9.944,-0.012,0.017,0.008
1.299,-0.527,9.905,-0.008,0.015,0.008
1.296,-0.506,9.905,0,0.004,0.008
1.294,-0.536,9.878,-0.002,0.006,0.009
1.299,-0.523,9.94,0.004,-0.002,0.006
1.277,-0.5,9.932,-0.015,0.015,0.012
1.283,-0.487,9.92,-0.009,0.011,0.01
1.302,-0.493,9.907,-0.003,0.003,0.01
1.32,-0.503,9.872,0.004,-0.003,0.006
1.298,-0.478,9.895,-0.005,0.008,0.007
1.282,-0.49,9.888,0.004,0.001,0.008
1.274,-0.51,9.918,0.005,0.002,0.006
1.28,-0.495,9.911,0.002,0,0.006
1.292,-0.476,9.947,-0.005,0.009,0.005
1.275,-0.481,9.908,-0.007,0.005,0.008
1.286,-0.473,9.903,-0.005,0.006,0.009
1.278,-0.488,9.827,0.001,0.005,0.01
1.29,-0.485,9.841,0.008,0.004,0.014
1.288,-0.486,9.881,0.006,0.009,0.013
1.274,-0.475,9.911,0.009,0.003,0.011
1.288,-0.479,9.965,0.011,-0.004,0.007
1.27,-0.459,9.916,0.007,-0.003,0.006
1.294,-0.471,9.969,0.01,-0.005,0
1.303,-0.504,9.912,0.004,0.007,0
1.296,-0.53,9.943,0.004,0.01,0.001
1.291,-0.547,9.956,0.006,0.009,0.008
1.299,-0.54,9.986,0.005,0.004,0.007
1.31,-0.514,9.988,0.005,0.001,0.008
1.279,-0.504,9.945,-0.002,0.007,0.011
1.285,-0.496,9.962,0.002,0.007,0.007
1.306,-0.549,9.972,0.003,0.005,0.004
1.282,-0.559,9.943,0.01,-0.003,0.001
1.315,-0.563,9.974,-0.001,0.001,0.005
1.277,-0.531,9.958,-0.008,0.003,0.003
1.309,-0.503,9.946,-0.011,0.006,0.006
1.284,-0.481,9.926,-0.001,-0.005,0.004
1.304,-0.458,9.924,0.009,-0.006,-0.001
1.293,-0.472,9.919,0.003,0.002,-0.001
1.29,-0.493,9.95,0.007,-0.007,-0.006
1.293,-0.507,9.916,0.002,-0.004,-0.008
1.289,-0.493,9.905,-0.001,-0.002,-0.008
1.32,-0.486,9.906,-0.005,0.003,-0.001
1.306,-0.479,9.91,-0.005,0.004,0.006
1.29,-0.477,9.868,0.004,-0.002,0.009
1.308,-0.492,9.905,0.007,-0.006,0.009
1.322,-0.487,9.835,0.006,-0.005,0.01
1.334,-0.473,9.877,0.004,0.001,0.006
1.358,-0.483,9.857,0.019,-0.008,0.003
1.339,-0.465,9.901,0.013,0.004,0.001
1.332,-0.5,9.891,0.017,0.002,0.003
1.322,-0.498,9.92,0.014,0.004,0.004
1.318,-0.49,9.9,0.002,0.015,0.008
1.29,-0.437,9.926,0.01,0.003,0.01
1.282,-0.44,9.966,-0.002,0.013,0.016
1.29,-0.463,9.908,-0.002,0.013,0.017
1.304,-0.46,9.936,0.004,0.01,0.015
1.314,-0.481,9.922,0.011,0.005,0.016
1.267,-0.486,9.913,0.022,-0.003,0.011
1.297,-0.492,9.927,0.012,0.005,0.01
1.291,-0.479,9.979,0.013,0,0.004
1.261,-0.486,9.956,0.01,0.002,0.004
1.289,-0.487,9.974,0.004,0.005,0.008
1.278,-0.495,9.981,0.001,0.008,0.007
1.302,-0.49,9.962,0.006,0.008,0.005
1.29,-0.516,9.974,0.01,0.005,0.006
1.268,-0.511,9.929,0.009,0,0.005
1.284,-0.506,9.952,-0.001,0.005,0.006
1.288,-0.518,9.925,0.004,-0.004,0.002
1.274,-0.506,9.907,-0.003,-0.001,0.006
1.285,-0.491,9.978,-0.003,0.002,0.004
1.289,-0.48,9.944,-0.005,0.004,0.004
1.305,-0.469,9.984,-0.005,0.002,-0.003
1.285,-0.475,9.924,-0.007,0.004,-0.005
1.307,-0.476,9.96,-0.003,0,-0.012
1.303,-0.495,9.943,-0.011,0.008,-0.005
1.296,-0.474,9.947,-0.013,0.01,-0.002
1.287,-0.46,9.917,-0.001,-0.002,-0.003
1.301,-0.423,9.962,-0.001,-0.004,-0.001
1.304,-0.416,9.924,0.01,-0.011,-0.002
1.287,-0.428,9.933,0.002,0,-0.001
1.291,-0.452,9.891,0.002,-0.002,0.001
1.297,-0.436,9.934,-0.01,0.009,0.002
1.339,-0.457,9.925,-0.013,0.011,0.003
1.313,-0.462,9.937,-0.016,0.01,0.005
1.34,-0.457,9.925,-0.01,0.003,0.01
1.334,-0.477,9.91,-0.009,0.005,0.014
1.314,-0.488,9.845,-0.011,0.011,0.018
1.35,-0.485,9.933,-0.002,0.006,0.012
1.361,-0.536,9.873,-0.006,0.009,0.016
1.349,-0.51,9.941,-0.004,0.004,0.015
1.34,-0.51,9.894,-0.009,0.008,0.013
1.355,-0.507,9.888,0.002,-0.002,0.011
1.329,-0.476,9.867,0.004,0.001,0.009
1.362,-0.481,9.898,-0.001,0.011,0.012
1.321,-0.491,9.903,0.008,0.005,0.007

1.339,-0.474,9.911,0.001,0.015,-0.022
1.349,-0.452,9.937,-0.003,0.017,-0.019
1.353,-0.424,9.942,0.007,0.007,-0.018
1.356,-0.45,9.929,-0.008,0.022,-0.011
1.409,-0.463,9.95,-0.012,0.022,-0.014
1.39,-0.46,9.964,-0.004,0.014,-0.017
1.424,-0.465,9.936,-0.006,0.019,-0.014
1.47,-0.492,9.929,0.001,0.013,-0.01
1.448,-0.488,9.919,0.002,0.009,-0.007
1.45,-0.48,9.948,-0.008,0.015,-0.003
1.443,-0.492,9.974,0,0.001,-0.004
1.442,-0.469,9.927,-0.008,0.004,-0.003
1.449,-0.443,9.955,-0.006,0.004,-0.003
1.451,-0.426,9.917,-0.004,0.004,-0.003
1.45,-0.449,9.947,0.014,-0.01,-0.007
1.429,-0.474,9.947,0.006,-0.006,-0.004
1.389,-0.47,9.934,0.005,-0.01,0
1.401,-0.459,9.946,0.009,-0.014,0.005
1.381,-0.468,9.882,0.008,-0.014,0.004
1.38,-0.454,9.895,0,-0.003,0.008
1.372,-0.463,9.86,0.006,-0.007,0.009
1.396,-0.438,9.923,0.002,-0.002,0.014
1.374,-0.45,9.869,-0.003,0.001,0.019
1.39,-0.449,9.919,0.001,0,0.014
1.388,-0.466,9.886,-0.007,0.008,0.015
1.4,-0.481,9.935,-0.002,0.001,0.012
1.371,-0.484,9.863,0.008,-0.004,0.011
1.374,-0.49,9.907,0.005,0.002,0.013
1.371,-0.49,9.881,0.002,0.007,0.011
1.381,-0.483,9.889,0.011,-0.001,0.006
1.381,-0.494,9.92,0.01,0.002,0.012
1.344,-0.5,9.886,0.01,0.002,0.016
1.353,-0.491,9.931,0.005,0.009,0.011
1.37,-0.495,9.916,-0.001,0.015,0.011
1.377,-0.49,9.952,0.009,0.002,0.01
1.347,-0.486,9.911,0.003,0.005,0.014
1.354,-0.47,9.956,0.006,0.002,0.006
1.341,-0.466,9.942,0.014,-0.008,0.006
1.352,-0.485,9.929,0.012,-0.004,0.007
1.333,-0.503,9.924,0.009,-0.004,0.007
1.391,-0.507,9.934,0.001,0.004,0.007
1.352,-0.512,9.936,0.011,-0.005,0.006
1.367,-0.502,9.916,0.004,0.002,0.01
1.391,-0.526,9.926,0.002,0.004,0.011
1.397,-0.543,9.942,0.004,0.001,0.008
1.414,-0.545,9.952,-0.002,0.005,0.009
1.379,-0.562,9.898,-0.009,0.011,0.017
1.426,-0.531,9.928,-0.008,0.012,0.017
1.418,-0.518,9.979,-0.015,0.017,0.018
1.401,-0.507,9.935,-0.009,0.008,0.018
1.401,-0.469,9.94,-0.004,0.003,0.014
1.385,-0.458,9.927,-0.006,0.005,0.014
1.395,-0.432,9.986,-0.009,0.007,0.011
1.362,-0.43,9.959,-0.009,0.005,0.005
1.407,-0.437,9.918,-0.011,0.01,0.006
1.373,-0.408,9.91,-0.013,0.012,0.005
1.364,-0.418,9.926,0.004,-0.007,0.001
1.346,-0.427,9.937,0.004,-0.002,0.003
1.346,-0.431,9.916,0.007,-0.007,0.003
1.325,-0.425,9.922,-0.002,-0.001,0.011
1.314,-0.43,9.903,-0.002,-0.001,0.011
1.322,-0.452,9.877,0.007,-0.008,0.009
1.354,-0.473,9.9,-0.003,0.004,0.011
1.316,-0.493,9.922,-0.006,0.003,0.011
1.306,-0.515,9.895,-0.006,0.001,0.014
1.307,-0.543,9.927,-0.007,0.006,0.013
1.319,-0.518,9.898,-0.016,0.02,0.016
1.325,-0.512,9.903,-0.011,0.018,0.016
1.353,-0.534,9.904,-0.009,0.015,0.011
1.328,-0.525,9.901,0.003,0.002,0
1.344,-0.506,9.935,0,0,-0.005
1.342,-0.504,9.935,-0.005,0.004,-0.006
1.346,-0.474,9.941,-0.002,-0.001,-0.012
1.348,-0.488,9.914,-0.008,0.007,-0.008
1.371,-0.491,9.921,0.007,-0.003,-0.011
1.371,-0.474,9.886,0.013,-0.006,-0.014
1.386,-0.483,9.915,0.001,0.005,-0.011
1.391,-0.477,9.899,0.004,-0.001,-0.006
1.384,-0.476,9.898,-0.007,0.005,0
1.378,-0.48,9.881,-0.005,0.001,-0.004
1.402,-0.463,9.872,-0.006,0.006,-0.002
1.374,-0.475,9.874,0.004,0.003,-0.002
1.434,-0.48,9.925,0.009,-0.002,0.002
1.391,-0.468,9.892,0.004,0.001,0.002
1.39,-0.44,9.883,-0.006,0.008,0.005
1.373,-0.417,9.887,-0.008,0.013,0.01
1.385,-0.426,9.888,0.003,0.007,0.005
1.382,-0.435,9.923,-0.004,0.013,0.009
1.386,-0.43,9.929,-0.013,0.017,0.01
1.369,-0.446,9.937,-0.015,0.011,0.013
1.378,-0.412,9.92,-0.016,0.011,0.013
1.385,-0.423,9.893,-0.004,0.008,0.01
1.394,-0.427,9.908,0.008,0.004,0.011
1.394,-0.471,9.924,0.028,-0.012,0.003
1.358,-0.489,9.935,0.013,-0.001,0.004
1.397,-0.496,9.94,0.006,-0.005,0.005
1.376,-0.466,9.962,-0.005,-0.003,0.01
1.371,-0.475,9.928,-0.015,0.005,0.009
1.375,-0.489,9.944,-0.011,0.006,0.011
1.389,-0.538,9.893,-0.002,0.004,0.009
1.378,-0.528,9.908,0.001,0.004,0.009
1.405,-0.555,9.925,0.004,-0.005,0.012
1.369,-0.515,9.961,0.004,-0.013,0.016
1.374,-0.509,9.94,-0.001,-0.008,0.015

1.447,-0.379,9.836,0.042,-0.005,-0.007
1.447,-0.414,9.861,0.037,-0.001,-0.003
1.419,-0.455,9.851,0.025,0.008,-0.002
1.434,-0.448,9.883,0.025,0.001,0.001
1.448,-0.45,9.9,0.015,0.014,0.006
1.476,-0.459,9.952,0.021,0.014,0.008
1.481,-0.473,9.982,0.027,0.013,0.009
1.502,-0.534,9.984,0.013,0.029,0.013
1.5,-0.553,10.02,0.015,0.018,0.01
1.508,-0.558,10.011,0.005,0.02,0.01
1.505,-0.532,10.001,-0.001,0.017,0.012
1.545,-0.485,10.004,0,0.014,0.011
1.524,-0.451,10.036,0.005,0.01,0.004
1.54,-0.445,10.029,0.009,0.008,0
1.541,-0.476,10.026,0.011,0.002,-0.006
1.491,-0.471,10.003,0.008,-0.001,-0.014
1.476,-0.448,10.015,0.009,-0.013,-0.016
1.485,-0.424,10.01,0,-0.007,-0.009
1.446,-0.413,9.957,-0.008,0.002,-0.004
1.496,-0.425,9.943,0.005,-0.014,-0.005
1.502,-0.387,9.95,0.001,-0.01,-0.001
1.504,-0.385,9.966,0.005,-0.014,0.001
1.497,-0.404,9.921,0.001,-0.012,0.002
1.479,-0.396,9.923,-0.001,-0.016,0.003
1.459,-0.399,9.935,-0.01,-0.008,0.01
1.462,-0.411,9.879,-0.009,-0.006,0.012
1.467,-0.393,9.911,-0.008,-0.002,0.014
1.503,-0.404,9.848,-0.009,0.002,0.017
1.478,-0.434,9.825,-0.008,0.004,0.015
1.468,-0.44,9.844,-0.006,0.002,0.013
1.493,-0.432,9.852,0.002,-0.005,0.007
1.481,-0.449,9.841,-0.003,0,0.015
1.468,-0.493,9.824,-0.011,0.005,0.017
1.453,-0.495,9.761,-0.005,0.001,0.013
1.478,-0.447,9.802,-0.005,0.01,0.013
1.489,-0.416,9.803,0.007,0.005,0.011
1.455,-0.43,9.804,0,0.014,0.014
1.446,-0.428,9.85,0.002,0.012,0.011
1.447,-0.419,9.854,0.005,0.005,0.004
1.439,-0.411,9.911,-0.002,0.011,0.005
1.464,-0.417,9.907,-0.001,0.01,0.005
1.475,-0.402,9.917,0,0.014,0.008
1.477,-0.413,9.9,0.006,0.01,0.009
1.448,-0.389,9.948,0.001,0.014,0.015
1.489,-0.407,9.943,-0.001,0.012,0.014
1.479,-0.405,9.979,-0.005,0.015,0.011
1.45,-0.401,9.915,0.001,0.007,0.007
1.479,-0.427,9.921,0.006,0.003,0.005
1.479,-0.419,9.887,0.007,0.003,0
1.462,-0.452,9.93,0.008,0,-0.001
1.483,-0.457,9.916,0.014,-0.011,-0.006
1.491,-0.457,9.914,0.004,-0.001,-0.005
1.501,-0.468,9.92,0.01,-0.003,-0.007
1.477,-0.486,9.871,0.001,0.004,-0.005
1.449,-0.465,9.916,-0.003,0.008,-0.002
1.467,-0.455,9.92,0.001,0.006,0.002
1.496,-0.457,9.951,0.005,0.002,0.005
1.466,-0.434,9.935,0.004,0.002,0.005
1.484,-0.435,9.948,-0.004,0.012,0.006
1.449,-0.454,9.902,-0.005,0.012,0.009
1.46,-0.479,9.904,-0.003,0.007,0.009
1.454,-0.474,9.932,-0.005,0.007,0.008
1.486,-0.472,9.934,-0.004,0.007,0.013
1.462,-0.474,9.905,-0.003,0.01,0.014
1.498,-0.454,9.904,-0.009,0.014,0.012
1.512,-0.446,9.905,-0.004,0.008,0.009
1.475,-0.449,9.876,-0.01,0.015,0.005
1.506,-0.432,9.905,-0.006,0.008,0.002
1.511,-0.422,9.928,-0.002,0.004,-0.002
1.479,-0.398,9.947,-0.009,0.008,0.004
1.463,-0.41,9.902,-0.001,-0.002,0.002
1.46,-0.378,9.902,-0.013,0.008,0.004
1.48,-0.38,9.88,-0.014,0.007,0.005
1.475,-0.399,9.885,-0.012,0.009,0.009
1.457,-0.381,9.891,0.002,-0.004,0.01
1.464,-0.396,9.915,-0.008,0.005,0.016
1.435,-0.412,9.861,0.002,-0.007,0.016
1.447,-0.43,9.87,-0.003,-0.002,0.016
1.406,-0.415,9.867,0,-0.006,0.014
1.457,-0.437,9.912,-0.001,-0.004,0.01
1.47,-0.423,9.927,0.006,-0.01,0.006
1.458,-0.444,9.854,0.011,-0.012,0.005
1.47,-0.448,9.898,0.006,-0.002,0.004
1.457,-0.451,9.855,0.008,-0.005,0.003
1.434,-0.461,9.888,0.007,-0.006,0.003
1.419,-0.465,9.875,-0.009,0.008,0.008
1.418,-0.451,9.909,-0.006,0.004,0.008
1.448,-0.454,9.877,-0.006,0.005,0.006
1.448,-0.42,9.899,0.005,-0.001,0.005
1.452,-0.483,9.843,-0.001,0.009,0.01
1.431,-0.47,9.875,0.004,0.002,0
1.403,-0.495,9.879,-0.002,0.005,0
1.479,-0.499,9.945,-0.008,0.011,0.005
1.441,-0.494,9.953,-0.009,0.007,0.005
1.467,-0.472,9.931,-0.012,0.007,0.008
1.478,-0.446,9.901,-0.006,0.005,0.006
1.48,-0.439,9.897,-0.01,0.01,0.004
1.477,-0.465,9.902,-0.001,0.006,0
1.465,-0.464,9.925,0.001,0.004,-0.002
1.424,-0.477,9.93,0.002,-0.001,-0.004
1.435,-0.441,9.946,0.003,-0.006,-0.005
1.429,-0.422,9.907,-0.007,0.004,0.001
1.457,-0.417,9.918,0.003,-0.005,-0.004
1.459,-0.395,9.926,-0.013,0.008,-0.004

1.505,-0.509,9.915,-0.002,0.015,0.006
1.52,-0.5,9.938,-0.007,0.022,0.008
1.542,-0.484,9.963,0.001,0.011,0.005
1.499,-0.482,9.897,-0.001,0.01,0.008
1.515,-0.47,9.923,0.003,0.004,0.005
1.529,-0.447,9.927,0.002,0.001,0.001
1.51,-0.462,9.949,-0.004,0.005,-0.001
1.527,-0.474,9.946,0.008,-0.004,-0.005
1.532,-0.484,9.934,0.003,0.002,-0.004
1.528,-0.48,9.946,0.004,-0.003,-0.004
1.514,-0.496,9.909,-0.003,-0.001,-0.003
1.509,-0.499,9.896,-0.004,0,-0.003
1.513,-0.511,9.848,-0.009,0.002,0.006
1.526,-0.49,9.887,-0.005,-0.001,0.01
1.51,-0.482,9.885,-0.002,0,0.01
1.528,-0.482,9.867,0.009,-0.007,0.009
1.502,-0.45,9.869,0.006,-0.005,0.009
1.532,-0.46,9.861,0,0.001,0.006
1.498,-0.453,9.885,0.004,-0.003,0.003
1.49,-0.461,9.836,-0.001,0.001,-0.001
1.494,-0.441,9.856,-0.004,0.008,0.001
1.503,-0.455,9.847,0.002,0.004,0.004
1.519,-0.463,9.858,0.01,0.001,0.006
1.5,-0.48,9.863,0.006,0.008,0.008
1.514,-0.484,9.848,-0.002,0.013,0.013
1.5,-0.477,9.842,-0.005,0.015,0.013
1.55,-0.478,9.909,-0.009,0.02,0.014
1.525,-0.486,9.853,-0.009,0.017,0.02
1.527,-0.455,9.873,0.004,0.008,0.015
1.542,-0.465,9.91,0,0.017,0.012
1.549,-0.462,9.904,0.006,0.012,0.007
1.538,-0.435,9.919,0.007,0.009,0.008
1.537,-0.451,9.912,0.002,0.015,0.005
1.514,-0.448,9.924,0,0.012,0.006
1.496,-0.436,9.926,0.005,0.004,0.006
1.474,-0.435,9.935,0.002,0.006,0.01
1.51,-0.454,9.957,0.006,0.001,0.007
1.5,-0.461,9.987,-0.005,0.008,0.011
1.533,-0.454,9.966,0,0,0.008
1.51,-0.455,9.922,-0.005,0.007,0.007
1.496,-0.482,9.953,-0.001,0.004,0.009
1.509,-0.481,9.976,-0.007,0.011,0.01
1.477,-0.51,9.94,-0.005,0.007,0.011
1.446,-0.487,9.947,-0.016,0.013,0.011
1.462,-0.48,9.941,-0.017,0.015,0.012
1.48,-0.473,9.951,-0.009,0.005,0.01
1.476,-0.507,9.924,-0.015,0.01,0.007
1.501,-0.54,9.922,-0.012,0.005,0.005
1.509,-0.55,9.935,-0.016,0.008,0.004
1.553,-0.537,9.947,-0.011,0,0.002
1.555,-0.523,9.906,-0.017,0.006,0.005
1.556,-0.506,9.898,-0.016,0.002,0.008
1.515,-0.467,9.925,-0.021,0.009,0.003
1.535,-0.469,9.921,-0.022,0.003,0
1.476,-0.479,9.879,-0.018,-0.003,-0.003
1.506,-0.469,9.874,-0.008,-0.012,-0.005
1.476,-0.445,9.862,-0.016,-0.001,-0.003
1.491,-0.46,9.827,-0.013,0,-0.005
1.47,-0.448,9.848,-0.006,-0.004,-0.003
1.499,-0.453,9.807,-0.009,0,0.001
1.484,-0.431,9.818,-0.011,0.004,0.003
1.494,-0.408,9.831,-0.013,0.001,0.003
1.485,-0.416,9.843,-0.019,0.009,0.007
1.476,-0.429,9.796,-0.015,0.011,0.002
1.493,-0.423,9.819,-0.011,0.015,0.002
1.492,-0.45,9.824,-0.008,0.015,0.007
1.5,-0.48,9.851,0,0.009,0.009
1.513,-0.479,9.9,-0.001,0.012,0.011
1.493,-0.491,9.856,-0.014,0.022,0.018
1.51,-0.486,9.857,-0.013,0.019,0.018
1.526,-0.49,9.865,-0.016,0.022,0.017
1.538,-0.517,9.834,-0.02,0.025,0.019
1.555,-0.545,9.883,-0.011,0.02,0.014
1.508,-0.543,9.877,0.005,0.004,0.006
1.503,-0.535,9.895,0.01,-0.001,0.006
1.491,-0.536,9.84,0.001,0.011,0.008
1.498,-0.519,9.89,0.009,0,0.005
1.496,-0.511,9.876,0.004,0.007,0.001
1.517,-0.491,9.892,0.005,0.003,-0.003
1.515,-0.489,9.867,0.006,0.002,-0.003
1.48,-0.465,9.889,0.003,0.005,-0.003
1.476,-0.469,9.839,0.009,0.002,-0.002
1.472,-0.448,9.864,0.018,-0.002,-0.002
1.448,-0.446,9.91,0.017,-0.003,-0.002
1.48,-0.443,9.948,0.015,-0.002,-0.003
1.483,-0.458,9.913,0.004,0.01,0.002
1.495,-0.477,9.907,0.009,0.007,0
1.521,-0.499,9.884,0.005,0.007,0.003
1.491,-0.512,9.866,0.002,0.007,0.007
1.498,-0.526,9.914,-0.002,0.018,0.01
1.489,-0.513,9.932,0.005,0.006,0.01
1.527,-0.523,9.915,0,0.009,0.011
1.519,-0.519,9.952,-0.009,0.018,0.011
1.522,-0.525,9.938,0,0.012,0.003
1.528,-0.526,9.928,0.002,0.014,-0.001
1.527,-0.516,9.949,0.004,0.014,-0.002
1.556,-0.54,9.954,-0.007,0.02,0.004
1.52,-0.533,9.938,-0.011,0.017,0.004
1.515,-0.513,9.967,-0.01,0.007,0.006
1.52,-0.472,9.997,-0.018,0.011,0.012
1.526,-0.452,9.983,-0.021,0.014,0.013
1.526,-0.442,10,-0.01,0.002,0.011
1.514,-0.439,9.912,-0.007,0,0.01
1.521,-0.447,9.928,0.001,-0.008,0.008

1.45,-0.492,9.911,-0.001,-0.011,-0.002
1.472,-0.491,9.899,-0.002,-0.012,-0.001
1.45,-0.498,9.85,-0.001,-0.012,-0.004
1.445,-0.509,9.863,-0.01,-0.007,-0.003
1.455,-0.504,9.841,-0.024,0.008,0.003
1.475,-0.485,9.872,-0.016,0.002,-0.001
1.476,-0.455,9.884,-0.009,-0.001,0
1.496,-0.464,9.87,-0.01,0.001,-0.001
1.511,-0.458,9.889,-0.014,0.002,0
1.481,-0.488,9.833,-0.021,0.01,-0.001
1.506,-0.479,9.857,-0.017,0.01,-0.004
1.522,-0.463,9.818,-0.008,0.001,-0.005
1.54,-0.431,9.849,-0.007,0,-0.009
1.562,-0.442,9.817,-0.009,0.004,-0.008
1.55,-0.424,9.846,-0.007,-0.002,-0.011
1.551,-0.42,9.805,-0.01,0.004,-0.007
1.541,-0.415,9.866,-0.004,0.001,-0.011
1.568,-0.425,9.835,-0.007,0.006,-0.005
1.558,-0.408,9.846,-0.005,0.007,-0.003
1.562,-0.383,9.847,-0.008,0.01,0.004
1.58,-0.378,9.86,-0.005,0.008,0.004
1.526,-0.4,9.819,-0.005,0.003,0.008
1.549,-0.414,9.862,-0.006,0.001,0.01
1.56,-0.409,9.89,0.004,-0.004,0.008
1.549,-0.431,9.875,0.004,0,0.009
1.58,-0.475,9.872,0.002,0.004,0.012
1.543,-0.5,9.826,0.002,0.006,0.014
1.573,-0.522,9.883,0.005,0.004,0.013
1.569,-0.542,9.888,0.007,-0.002,0.019
1.536,-0.521,9.959,0.005,0.001,0.023
1.519,-0.559,9.935,0.003,0.003,0.027
1.565,-0.551,9.944,0.006,0,0.025
1.542,-0.526,9.948,-0.002,0.005,0.025
1.531,-0.527,9.925,-0.004,0.006,0.026
1.53,-0.531,9.938,0,0,0.024
1.506,-0.558,9.897,0.004,-0.005,0.021
1.5,-0.557,9.931,-0.004,0.003,0.016
1.483,-0.521,9.942,-0.001,0,0.011
1.464,-0.54,9.96,-0.001,-0.002,0.015
1.484,-0.535,9.916,-0.004,0,0.014
1.475,-0.503,9.914,-0.007,-0.004,0.007
1.467,-0.519,9.9,-0.012,0.001,0.008
1.481,-0.518,9.943,-0.007,-0.001,0.006
1.434,-0.531,9.864,-0.001,-0.007,0.008
1.43,-0.55,9.912,-0.006,-0.007,0.011
1.448,-0.562,9.879,-0.022,0.004,0.007
1.446,-0.461,9.871,-0.018,0.004,-0.001
1.455,-0.474,9.843,-0.013,0.006,0.003
1.448,-0.505,9.805,-0.003,0.007,-0.002
1.466,-0.496,9.832,0,0.012,-0.008
1.457,-0.495,9.806,0,0.011,-0.008
1.453,-0.473,9.864,-0.002,0.012,-0.007
1.458,-0.44,9.851,-0.003,0.011,-0.008
1.448,-0.445,9.857,-0.008,0.016,-0.007
1.461,-0.47,9.868,-0.003,0.013,-0.009
1.481,-0.477,9.833,-0.007,0.022,-0.008
1.507,-0.48,9.858,-0.001,0.018,-0.007
1.507,-0.499,9.828,-0.012,0.031,-0.004
1.512,-0.486,9.876,-0.005,0.02,0
1.497,-0.504,9.897,-0.002,0.018,0
1.516,-0.52,9.919,0.003,0.01,-0.002
1.528,-0.542,9.909,-0.003,0.013,-0.003
1.539,-0.558,9.873,0.001,0.01,-0.006
1.568,-0.537,9.882,-0.001,0.016,-0.003
1.588,-0.557,9.839,-0.002,0.021,0
1.584,-0.575,9.902,-0.005,0.022,-0.004
1.572,-0.514,9.901,0.004,0.006,-0.005
1.585,-0.51,9.949,0.005,0.002,-0.005
1.548,-0.47,9.886,0.003,0.005,-0.004
1.542,-0.447,9.919,0.008,0,-0.008
1.501,-0.421,9.869,0.008,-0.002,-0.01
1.537,-0.42,9.917,0,0.005,-0.009
1.552,-0.413,9.931,-0.001,0.008,-0.007
1.522,-0.414,9.941,-0.002,0.005,-0.002
1.517,-0.405,9.915,0.002,-0.003,0.003
1.509,-0.406,9.934,-0.002,0,0.011
1.5,-0.419,9.896,-0.001,0.001,0.011
1.493,-0.436,9.922,0.003,-0.002,0.012
1.505,-0.441,9.887,-0.003,0.008,0.014
1.482,-0.451,9.922,0.01,-0.003,0.013
1.498,-0.512,9.913,0.005,-0.003,0.013
1.52,-0.551,9.916,-0.004,0.003,0.012
1.473,-0.57,9.88,-0.013,0.007,0.014
1.495,-0.571,9.895,-0.016,0.008,0.018
1.498,-0.575,9.915,-0.007,0.002,0.015
1.504,-0.586,9.89,-0.006,0.001,0.013
1.513,-0.556,9.956,-0.008,0.005,0.006
1.473,-0.563,9.872,-0.004,-0.002,0.002
1.481,-0.549,9.896,-0.01,0.005,-0.003
1.474,-0.545,9.911,-0.014,0.004,-0.004
1.438,-0.522,9.933,-0.019,0.005,-0.005
1.443,-0.471,9.948,-0.022,0.008,-0.006
1.447,-0.456,9.93,-0.014,0.005,-0.011
1.453,-0.448,9.861,-0.003,-0.003,-0.011
1.458,-0.458,9.87,-0.01,0.005,-0.01
1.435,-0.452,9.887,-0.007,0.002,-0.014
1.445,-0.44,9.884,-0.013,0.007,-0.015
1.456,-0.45,9.864,-0.01,0.005,-0.013
1.489,-0.481,9.885,-0.014,0.01,-0.011
1.49,-0.494,9.87,-0.019,0.013,-0.008
1.474,-0.516,9.862,-0.019,0.011,-0.005
1.491,-0.532,9.872,-0.022,0.015,-0.003
1.504,-0.53,9.906,-0.016,0.006,0.002
1.509,-0.556,9.853,-0.021,0.012,0.009

1.541,-0.546,9.938,-0.013,0,0.006
1.541,-0.556,9.919,-0.01,0.001,0.001
1.575,-0.565,9.905,-0.006,0,-0.003
1.561,-0.584,9.876,-0.002,-0.002,-0.002
1.569,-0.599,9.857,0.001,-0.003,0.004
1.534,-0.571,9.845,0.006,-0.005,0.008
1.508,-0.533,9.81,0,-0.001,0.015
1.513,-0.494,9.859,-0.002,0.002,0.013
1.541,-0.483,9.808,-0.003,0.005,0.011
1.509,-0.456,9.874,-0.009,0.012,0.008
1.523,-0.471,9.81,-0.011,0.014,0.003
1.535,-0.495,9.858,-0.007,0.012,0.002
1.524,-0.532,9.869,0,0.009,0.003
1.515,-0.538,9.863,0.001,0.009,0.007
1.522,-0.544,9.872,0.001,0.007,0.012
1.534,-0.551,9.891,-0.001,0.009,0.017
1.546,-0.547,9.904,-0.003,0.015,0.016
1.561,-0.539,9.885,0.003,0.008,0.014
1.574,-0.55,9.849,0.001,0.008,0.013
1.57,-0.533,9.88,0.002,0.009,0.01
1.587,-0.543,9.885,0.01,0,0.006
1.586,-0.536,9.869,0.015,-0.004,0.003
1.595,-0.486,9.905,0.018,-0.009,-0.002
1.563,-0.464,9.909,0.015,-0.01,-0.005
1.611,-0.474,9.952,0.01,-0.006,-0.011
1.587,-0.492,9.923,0.004,-0.003,-0.01
1.584,-0.444,9.946,-0.001,-0.004,-0.006
1.556,-0.478,9.941,-0.005,-0.001,0.001
1.571,-0.49,9.923,0.001,-0.01,0.005
1.564,-0.49,9.938,0.002,-0.008,0.01
1.557,-0.48,9.937,-0.001,-0.006,0.013
1.546,-0.497,9.921,-0.002,-0.006,0.015
1.546,-0.503,9.9,-0.004,-0.008,0.013
1.57,-0.522,9.879,-0.007,-0.006,0.014
1.562,-0.499,9.861,-0.005,-0.006,0.014
1.537,-0.513,9.823,-0.005,-0.005,0.013
1.539,-0.503,9.849,-0.007,0.002,0.013
1.512,-0.515,9.814,-0.002,-0.001,0.006
1.546,-0.505,9.873,0,-0.002,0.003
1.533,-0.526,9.834,-0.006,0.005,0.006
1.548,-0.506,9.843,-0.009,0.005,0.005
1.532,-0.524,9.872,-0.006,0.009,0.005
1.53,-0.548,9.82,0.002,0.006,0.01
1.523,-0.534,9.826,0.011,-0.003,0.013
1.516,-0.53,9.802,0.008,0.004,0.013
1.491,-0.519,9.841,0.005,0.01,0.015
1.517,-0.524,9.857,0.011,0.002,0.01
1.506,-0.529,9.863,0.004,0.006,0.009
1.507,-0.532,9.897,0.002,0.009,0.006
1.518,-0.524,9.875,-0.001,0.017,0.005
1.533,-0.534,9.848,0.002,0.016,0.007
1.523,-0.555,9.884,0.013,0.009,0.006
1.523,-0.581,9.913,0.002,0.019,0.007
1.529,-0.562,9.914,0.002,0.012,0.007
1.514,-0.533,9.932,-0.004,0.013,0.01
1.523,-0.534,9.952,-0.002,0.01,0.007
1.527,-0.517,9.966,0.006,0,0.001
1.525,-0.535,9.922,-0.001,0.007,0
1.533,-0.531,9.973,-0.003,0.011,-0.001
1.536,-0.568,9.925,-0.009,0.016,-0.001
1.532,-0.536,9.949,-0.011,0.011,0
1.575,-0.525,9.907,-0.016,0.008,0.001
1.588,-0.517,9.949,-0.021,0.011,-0.003
1.556,-0.488,9.936,-0.014,0.001,-0.008
1.558,-0.512,9.923,-0.011,-0.002,-0.009
1.556,-0.51,9.901,-0.012,-0.005,-0.004
1.578,-0.521,9.905,-0.015,-0.001,-0.005
1.558,-0.503,9.869,-0.02,0.002,-0.004
1.528,-0.497,9.86,-0.018,-0.003,-0.005
1.536,-0.514,9.889,-0.016,-0.004,-0.003
1.56,-0.538,9.85,-0.016,-0.001,-0.006
1.563,-0.542,9.846,-0.019,0.006,-0.004
1.541,-0.544,9.835,-0.02,0.005,-0.004
1.595,-0.536,9.855,-0.018,0,-0.004
1.559,-0.511,9.783,-0.013,0,-0.002
1.563,-0.498,9.791,-0.005,-0.001,0.002
1.541,-0.508,9.795,0.005,-0.007,0.001
1.523,-0.51,9.764,0.003,-0.001,0
1.532,-0.496,9.814,0.007,-0.005,-0.005
1.533,-0.506,9.835,0.007,-0.006,-0.007
1.542,-0.492,9.856,-0.003,0.007,0
1.541,-0.493,9.784,-0.002,0.011,0.006
1.591,-0.518,9.803,-0.001,0.017,0.005
1.604,-0.526,9.827,0.005,0.015,0.004
1.62,-0.529,9.819,0.012,0.009,0.009
1.572,-0.529,9.875,0.012,0.005,0.012
1.594,-0.516,9.878,0.008,0.009,0.01
1.608,-0.512,9.909,0.005,0.017,0.009
1.576,-0.504,9.891,0.01,0.014,0.01
1.596,-0.517,9.905,0.013,0.011,0.011
1.628,-0.521,9.971,0.007,0.015,0.016
1.58,-0.513,9.928,0.004,0.016,0.013
1.591,-0.487,9.942,-0.003,0.019,0.015
1.569,-0.473,9.959,0,0.009,0.016
1.574,-0.471,9.959,-0.006,0.013,0.015
1.515,-0.52,9.906,0.001,0.005,0.013
1.54,-0.509,9.89,0.006,-0.001,0.01
1.528,-0.51,9.874,0.009,-0.003,0.007
1.566,-0.508,9.904,0.015,-0.008,0.008
1.538,-0.535,9.87,0.015,-0.007,0.006
1.524,-0.511,9.862,0.016,-0.009,0.005
1.502,-0.498,9.879,0.005,0,0.01
1.512,-0.504,9.888,0.003,0.004,0.01
1.461,-0.499,9.835,0.012,-0.004,0.009

1.528,-0.558,9.901,0.011,0.005,0.01
1.532,-0.559,9.896,0.02,-0.004,0.009
1.541,-0.568,9.833,0.012,0,0.008
1.548,-0.558,9.884,0.009,0.001,0.008
1.539,-0.56,9.879,0.015,-0.004,0.002
1.51,-0.55,9.932,0.003,0.008,0.004
1.503,-0.551,9.935,0.004,0.006,0.006
1.479,-0.554,9.901,0.005,0.004,0.006
1.487,-0.545,9.891,-0.001,0.014,0.007
1.492,-0.546,9.889,-0.004,0.015,0.009
1.494,-0.568,9.871,-0.003,0.012,0.011
1.496,-0.538,9.909,-0.003,0.009,0.008
1.5,-0.523,9.895,-0.004,0.012,0.007
1.494,-0.526,9.896,-0.006,0.02,0.006
1.515,-0.539,9.912,-0.001,0.018,0.004
1.505,-0.543,9.869,0.004,0.016,0.002
1.478,-0.548,9.877,0.003,0.017,0.006
1.476,-0.571,9.886,0.005,0.01,0.005
1.468,-0.58,9.89,-0.001,0.011,0
1.494,-0.581,9.89,0.001,0.006,-0.001
1.482,-0.578,9.874,-0.007,0.017,0
1.511,-0.572,9.887,-0.007,0.019,-0.001
1.503,-0.572,9.931,-0.007,0.017,0.002
1.483,-0.57,9.898,-0.001,0.013,0.001
1.507,-0.577,9.915,0.001,0.011,-0.002
1.497,-0.548,9.906,0,0.009,-0.004
1.512,-0.552,9.917,-0.009,0.011,-0.009
1.539,-0.54,9.923,-0.008,0.009,-0.014
1.522,-0.525,9.896,-0.014,0.015,-0.016
1.519,-0.496,9.913,-0.008,0.008,-0.017
1.493,-0.495,9.882,-0.003,0.005,-0.015
1.518,-0.483,9.89,0.002,0.004,-0.016
1.507,-0.477,9.868,0.002,0.002,-0.013
1.525,-0.449,9.889,-0.008,0.008,-0.01
1.515,-0.408,9.878,0,-0.002,-0.01
1.525,-0.386,9.871,-0.001,0,-0.007
1.513,-0.431,9.878,-0.002,-0.003,-0.004
1.527,-0.426,9.884,-0.004,-0.001,0.001
1.54,-0.42,9.889,-0.004,0.003,0.004
1.526,-0.406,9.903,0,0.004,0.01
1.552,-0.441,9.974,-0.004,0.008,0.019
1.593,-0.503,9.961,-0.005,0.004,0.013
1.551,-0.51,9.998,-0.011,0.003,0.014
1.529,-0.56,9.972,-0.017,0.004,0.02
1.558,-0.59,9.972,-0.014,-0.002,0.025
1.579,-0.648,9.938,-0.011,-0.007,0.027
1.59,-0.645,10.019,-0.015,-0.005,0.037
1.596,-0.655,9.976,-0.016,-0.005,0.04
1.576,-0.641,9.976,-0.015,-0.011,0.037
1.557,-0.646,9.949,-0.02,-0.013,0.033
1.523,-0.626,9.965,-0.026,-0.012,0.025
1.533,-0.6,9.972,-0.027,-0.012,0.015
1.51,-0.6,9.983,-0.016,-0.024,0.006
1.511,-0.622,9.953,-0.016,-0.026,0.004
1.505,-0.612,9.916,-0.021,-0.016,0.002
1.509,-0.609,9.922,-0.025,-0.013,0.004
1.505,-0.596,9.909,-0.024,-0.019,0.006
1.504,-0.576,9.933,-0.014,-0.034,0.005
1.498,-0.57,9.853,-0.023,-0.028,0.009
1.486,-0.564,9.846,-0.031,-0.019,0.009
1.463,-0.515,9.829,-0.019,-0.024,0.008
1.487,-0.507,9.796,-0.015,-0.024,0.01
1.493,-0.502,9.73,-0.017,-0.018,0.009
1.507,-0.497,9.746,-0.014,-0.018,0.003
1.497,-0.48,9.776,-0.017,-0.015,-0.003
1.537,-0.474,9.778,-0.02,-0.005,-0.008
1.514,-0.496,9.743,-0.012,-0.009,-0.005
1.525,-0.547,9.683,-0.012,-0.002,-0.005
1.519,-0.543,9.747,-0.014,0.006,-0.004
1.553,-0.543,9.765,-0.008,0.002,-0.002
1.559,-0.57,9.781,-0.008,0.006,0.005
1.528,-0.56,9.803,-0.003,0.005,0.008
1.544,-0.569,9.806,-0.009,0.014,0.009
1.568,-0.591,9.801,-0.007,0.013,0.011
1.569,-0.571,9.858,-0.006,0.011,0.007
1.573,-0.586,9.837,-0.007,0.014,0.007
1.599,-0.574,9.842,0,0.013,0.007
1.603,-0.556,9.862,-0.006,0.023,0.011
1.6,-0.543,9.889,-0.002,0.019,0.007
1.619,-0.525,9.889,0.006,0.007,0.003
1.595,-0.575,9.915,0.002,0.014,0.002
1.571,-0.577,9.912,0.002,0.012,0.001
1.581,-0.583,9.926,0.005,0.004,0.008
1.584,-0.566,9.937,0.008,0,0.012
1.602,-0.56,9.971,0.002,0.003,0.014
1.607,-0.553,9.894,0.007,-0.001,0.015
1.612,-0.543,9.886,0.009,0.001,0.016
1.552,-0.547,9.852,0.008,0.004,0.015
1.563,-0.543,9.893,0.014,-0.005,0.013
1.572,-0.541,9.929,0.003,0.001,0.015
1.526,-0.522,9.931,0.01,-0.006,0.013
1.51,-0.502,9.88,0.009,0.002,0.014
1.493,-0.506,9.878,0.004,0.007,0.016
1.491,-0.505,9.856,0.003,0.007,0.017
1.473,-0.537,9.863,0.009,0.002,0.017
1.493,-0.575,9.887,0.008,0.003,0.02
1.524,-0.577,9.88,0.007,0.001,0.023
1.509,-0.571,9.893,0,0.011,0.022
1.497,-0.606,9.897,-0.001,0.014,0.02
1.503,-0.646,9.868,0.002,0.01,0.014
1.476,-0.672,9.834,-0.003,0.014,0.014
1.508,-0.662,9.849,-0.004,0.015,0.013
1.537,-0.687,9.89,-0.011,0.021,0.018
1.503,-0.717,9.859,-0.013,0.021,0.017

1.494,-0.485,9.822,0.015,0.001,-0.004
1.469,-0.495,9.798,0.021,0,-0.005
1.457,-0.484,9.827,0.019,0.004,-0.005
1.464,-0.461,9.839,0.015,0.003,-0.003
1.459,-0.435,9.898,0.013,0.006,-0.003
1.423,-0.399,9.946,0.018,0,-0.004
1.464,-0.432,9.959,0.016,-0.001,-0.004
1.477,-0.461,9.958,0.016,-0.001,-0.01
1.479,-0.478,9.927,0.009,0.01,-0.01
1.477,-0.495,9.91,0.009,0.014,-0.005
1.449,-0.526,9.896,0.015,0.013,0
1.462,-0.561,9.893,0.016,0.014,0.007
1.46,-0.56,9.94,0.015,0.012,0.007
1.469,-0.56,9.938,0.01,0.008,0.013
1.455,-0.527,9.957,0,0.011,0.017
1.479,-0.511,9.977,-0.003,0.013,0.014
1.462,-0.528,9.961,-0.002,0.015,0.011
1.48,-0.543,9.949,0.006,0.007,0.004
1.474,-0.542,9.996,-0.004,0.016,-0.002
1.482,-0.548,9.969,-0.003,0.009,-0.005
1.458,-0.528,10.012,-0.011,0.009,-0.007
1.458,-0.489,10.02,-0.009,-0.001,-0.009
1.451,-0.465,10,-0.011,0.001,-0.012
1.47,-0.471,9.995,-0.011,0.004,-0.014
1.52,-0.493,9.987,-0.002,-0.006,-0.016
1.459,-0.493,9.959,-0.007,-0.006,-0.016
1.446,-0.484,9.951,-0.013,-0.01,-0.009
1.445,-0.443,9.958,-0.013,-0.013,-0.009
1.471,-0.44,9.945,-0.027,-0.002,-0.007
1.467,-0.403,9.986,-0.031,-0.002,-0.005
1.435,-0.436,9.94,-0.025,-0.004,-0.008
1.458,-0.446,9.919,-0.027,-0.001,-0.008
1.449,-0.467,9.89,-0.029,0.002,-0.009
1.471,-0.465,9.875,-0.021,-0.004,-0.009
1.435,-0.484,9.838,-0.017,-0.005,-0.005
1.486,-0.517,9.842,-0.023,0.003,-0.003
1.457,-0.488,9.855,-0.021,-0.001,-0.002
1.475,-0.475,9.855,-0.022,-0.004,0.001
1.495,-0.469,9.877,-0.031,0.003,0.002
1.446,-0.469,9.852,-0.025,-0.004,-0.005
1.485,-0.457,9.895,-0.025,-0.001,-0.006
1.524,-0.476,9.858,-0.023,0.002,-0.004
1.504,-0.471,9.865,-0.014,-0.005,-0.003
1.522,-0.461,9.856,-0.014,-0.005,-0.003
1.519,-0.443,9.829,-0.01,-0.01,-0.001
1.504,-0.42,9.831,-0.004,-0.014,0.002
1.471,-0.383,9.839,-0.001,-0.015,0.001
1.481,-0.407,9.874,-0.008,-0.009,0
1.492,-0.435,9.862,-0.02,-0.003,0
1.482,-0.416,9.868,-0.011,-0.01,0
1.493,-0.421,9.805,-0.014,0.003,0.004
1.518,-0.42,9.809,-0.012,0.007,0.013
1.494,-0.446,9.78,-0.009,0.004,0.018
1.514,-0.457,9.81,-0.005,-0.002,0.018
1.485,-0.466,9.763,0.002,-0.011,0.015
1.461,-0.458,9.77,0.006,-0.016,0.013
1.491,-0.465,9.756,0.008,-0.01,0.007
1.494,-0.461,9.785,0.016,-0.012,0.001
1.486,-0.479,9.779,0.022,-0.013,-0.008
1.475,-0.49,9.782,0.018,-0.007,-0.01
1.457,-0.478,9.815,0.023,-0.007,-0.007
1.446,-0.526,9.821,0.023,-0.004,-0.004
1.449,-0.531,9.881,0.016,0.009,0
1.434,-0.55,9.874,0.024,-0.001,0.001
1.465,-0.585,9.882,0.018,0.008,0.005
1.505,-0.592,9.878,0.011,0.02,0.009
1.537,-0.579,9.933,0.016,0.024,0.013
1.558,-0.63,9.926,0.018,0.026,0.021
1.537,-0.666,9.863,0.014,0.032,0.022
1.536,-0.674,9.905,-0.001,0.044,0.023
1.514,-0.65,9.974,-0.002,0.044,0.017
1.522,-0.594,10.002,-0.004,0.039,0.015
1.54,-0.536,10.066,-0.013,0.043,0.011
1.518,-0.497,10.056,-0.016,0.046,0.004
1.548,-0.485,10.074,-0.007,0.037,-0.005
1.51,-0.446,10.116,-0.006,0.028,-0.008
1.5,-0.441,10.089,-0.01,0.023,-0.011
1.524,-0.429,10.136,-0.01,0.011,-0.012
1.508,-0.388,10.091,-0.009,0.002,-0.015
1.482,-0.357,10.072,-0.008,-0.005,-0.016
1.539,-0.388,10.074,-0.015,-0.005,-0.011
1.51,-0.415,10.045,-0.017,-0.011,-0.009
1.51,-0.427,10.034,-0.017,-0.02,-0.009
1.508,-0.456,9.979,-0.02,-0.025,-0.004
1.517,-0.44,9.95,-0.019,-0.029,0
1.499,-0.469,9.879,-0.025,-0.017,0.004
1.486,-0.497,9.87,-0.014,-0.024,0.005
1.503,-0.508,9.853,-0.014,-0.026,0.006
1.486,-0.536,9.799,-0.023,-0.019,0.011
1.485,-0.525,9.827,-0.03,-0.016,0.016
1.481,-0.505,9.798,-0.029,-0.017,0.011
1.476,-0.52,9.751,-0.027,-0.013,0.007
1.506,-0.532,9.723,-0.021,-0.008,0.004
1.498,-0.509,9.733,-0.016,-0.005,0.001
1.487,-0.502,9.808,-0.018,-0.002,0.001
1.459,-0.512,9.789,-0.022,0.005,0.004
1.457,-0.461,9.811,-0.025,0.004,0.005
1.449,-0.438,9.788,-0.018,-0.001,0.005
1.482,-0.427,9.799,-0.012,0.001,0.007
1.453,-0.415,9.846,-0.01,0.008,0.008
1.472,-0.442,9.866,-0.008,0.008,0.007
1.464,-0.431,9.823,-0.003,0.001,0.006
1.477,-0.433,9.796,-0.008,0.007,0.011
1.503,-0.434,9.843,-0.005,0.005,0.017

1.51,-0.482,9.916,0.005,0.004,-0.002
1.497,-0.468,9.926,-0.003,0.009,0
1.522,-0.477,9.894,-0.003,0.01,0.001
1.529,-0.467,9.902,-0.002,0.01,0.002
1.547,-0.498,9.876,-0.001,0.014,0.002
1.566,-0.494,9.852,0.004,0.014,0.003
1.52,-0.49,9.844,0.006,0.009,0.003
1.549,-0.48,9.872,0.007,0.007,0.005
1.525,-0.489,9.854,0,0.011,0.009
1.536,-0.502,9.864,0,0.007,0.011
1.514,-0.469,9.871,-0.002,0.008,0.009
1.541,-0.469,9.88,0.006,0.003,0.01
1.535,-0.465,9.893,0.005,0.007,0.01
1.518,-0.477,9.873,0.004,0.011,0.009
1.504,-0.467,9.875,0.001,0.012,0.007
1.519,-0.445,9.934,-0.001,0.012,0.007
1.56,-0.444,9.926,0.002,0.005,0.008
1.525,-0.428,9.928,0.009,-0.002,0.004
1.542,-0.42,9.924,0.011,-0.003,0.004
1.522,-0.428,9.882,0.014,-0.001,0.005
1.509,-0.436,9.888,0.013,0.001,0.005
1.514,-0.453,9.914,0.01,0,0.005
1.507,-0.453,9.896,0.01,-0.003,0.01
1.484,-0.434,9.944,0.001,0.003,0.012
1.488,-0.453,9.898,-0.002,0.004,0.013
1.503,-0.445,9.91,0.007,-0.005,0.012
1.478,-0.46,9.904,0.004,0.001,0.013
1.52,-0.472,9.885,0.006,0.005,0.012
1.509,-0.467,9.91,0.014,0,0.01
1.528,-0.465,9.901,0.002,0.014,0.017
1.513,-0.474,9.95,0.006,0.004,0.016
1.502,-0.481,9.918,-0.006,0.014,0.02
1.5,-0.452,9.931,-0.011,0.011,0.017
1.472,-0.437,9.936,-0.015,0.016,0.015
1.53,-0.462,9.921,-0.01,0.014,0.013
1.505,-0.478,9.917,0.006,0.001,0.009
1.49,-0.504,9.887,0,0.007,0.012
1.522,-0.489,9.935,-0.003,0.009,0.013
1.493,-0.499,9.89,0,0.005,0.016
1.507,-0.45,9.95,-0.001,0.002,0.015
1.488,-0.426,9.878,-0.007,0.009,0.012
1.487,-0.435,9.893,-0.001,0.003,0.01
1.466,-0.453,9.872,0.005,0,0.006
1.503,-0.479,9.873,-0.008,0.013,0.008
1.501,-0.497,9.879,-0.007,0.01,0.008
1.517,-0.486,9.899,-0.004,0.002,0.009
1.496,-0.465,9.927,-0.005,0.004,0.014
1.474,-0.457,9.87,-0.009,0.007,0.018
1.51,-0.453,9.889,-0.002,-0.002,0.014
1.472,-0.482,9.867,-0.008,0.003,0.014
1.476,-0.483,9.86,-0.012,0.013,0.012
1.49,-0.478,9.885,-0.012,0.014,0.011
1.501,-0.455,9.884,-0.001,0.003,0.011
1.507,-0.435,9.919,-0.003,0.003,0.008
1.466,-0.421,9.847,-0.004,0.002,0.005
1.468,-0.39,9.906,-0.008,0.006,0.003
1.481,-0.41,9.875,-0.007,0.005,0
1.471,-0.425,9.823,-0.007,0.005,-0.002
1.461,-0.442,9.845,-0.001,0.004,-0.003
1.482,-0.437,9.815,0.013,-0.006,-0.001
1.455,-0.422,9.816,0.017,-0.006,0.002
1.468,-0.436,9.789,0.024,-0.009,0.001
1.472,-0.419,9.841,0.019,-0.004,0.003
1.47,-0.432,9.866,0.011,0.003,0
1.469,-0.446,9.868,0.005,0.009,0.003
1.483,-0.447,9.843,0.001,0.016,0.005
1.493,-0.495,9.87,-0.006,0.025,0.009
1.506,-0.511,9.925,-0.009,0.029,0.009
1.537,-0.525,9.867,-0.002,0.018,0.011
1.512,-0.532,9.888,-0.002,0.024,0.011
1.55,-0.533,9.918,-0.005,0.027,0.01
1.545,-0.502,9.961,0.001,0.02,0.012
1.533,-0.522,9.952,-0.003,0.024,0.012
1.55,-0.495,9.969,0,0.019,0.012
1.495,-0.476,9.956,-0.005,0.016,0.01
1.51,-0.431,9.973,-0.006,0.012,0.008
1.5,-0.451,9.914,-0.004,0.006,0.001
1.474,-0.43,9.913,-0.012,0.015,-0.001
1.473,-0.425,9.874,-0.003,0.009,-0.006
1.486,-0.425,9.925,-0.002,0.012,-0.002
1.493,-0.446,9.902,0.004,0.004,-0.003
1.489,-0.442,9.954,0.002,0.002,-0.003
1.459,-0.454,9.884,0,0,0.001
1.458,-0.437,9.889,-0.003,-0.001,0.003
1.434,-0.447,9.814,-0.001,0.001,0.005
1.45,-0.452,9.843,0,0.011,0.003
1.474,-0.474,9.888,0.006,0.007,0.003
1.49,-0.487,9.919,0.007,0.003,0.002
1.468,-0.477,9.872,-0.007,0.012,0.005
1.483,-0.467,9.876,-0.009,0.011,0.006
1.5,-0.458,9.861,-0.007,0.012,0.001
1.505,-0.468,9.908,-0.002,0.009,0.001
1.517,-0.473,9.908,-0.007,0.017,0
1.503,-0.468,9.917,-0.005,0.018,-0.004
1.495,-0.455,9.899,-0.008,0.018,0.001
1.496,-0.436,9.89,-0.008,0.015,0.001
1.51,-0.43,9.926,-0.004,0.004,-0.005
1.503,-0.428,9.904,-0.013,0.013,-0.007
1.522,-0.403,9.924,0.001,-0.001,-0.011
1.499,-0.411,9.874,0.007,-0.005,-0.008
1.478,-0.409,9.895,0.007,-0.004,-0.008
1.491,-0.388,9.905,-0.003,0.007,-0.006
1.493,-0.377,9.928,0.003,-0.004,-0.006
1.495,-0.378,9.933,0.009,-0.01,-0.005

1.488,-0.286,9.933,-0.011,0.006,0.004
1.498,-0.289,9.956,-0.022,0.014,0.006
1.527,-0.299,9.929,-0.029,0.018,0.009
1.513,-0.289,9.925,-0.022,0.006,0.01
1.485,-0.316,9.874,-0.024,0.003,0.014
1.522,-0.29,9.836,-0.035,0.026,0.013
1.486,-0.321,9.833,-0.026,0.021,0.016
1.505,-0.36,9.832,-0.021,0.017,0.014
1.461,-0.374,9.849,-0.009,0,0.008
1.486,-0.376,9.827,-0.012,0.005,0.008
1.486,-0.365,9.818,0.004,-0.007,0.005
1.476,-0.376,9.792,0.002,-0.005,0.006
1.493,-0.388,9.843,-0.014,0.012,0.008
1.458,-0.375,9.874,-0.011,0.009,0.007
1.464,-0.359,9.862,-0.005,0.005,0.007
1.485,-0.334,9.892,-0.005,0.007,0.012
1.464,-0.349,9.875,0,0.004,0.007
1.447,-0.331,9.869,0.007,0.001,0.003
1.49,-0.332,9.879,0.001,0.006,0.003
1.47,-0.347,9.887,0.002,0.001,0.001
1.475,-0.343,9.873,0.004,-0.001,0.003
1.422,-0.319,9.884,0.005,0.002,0.003
1.454,-0.327,9.894,0.007,0.008,0.001
1.424,-0.355,9.893,0.017,-0.004,-0.004
1.463,-0.318,9.893,0.009,0.001,-0.004
1.437,-0.306,9.935,0.001,0.012,0
1.465,-0.322,9.964,0.008,0.01,-0.002
1.45,-0.356,9.917,0.008,0.01,-0.001
1.437,-0.382,9.916,0.003,0.011,0
1.454,-0.398,9.896,-0.006,0.021,0.005
1.485,-0.4,9.88,0.005,0.016,0.004
1.493,-0.405,9.901,0.012,0.012,0.001
1.494,-0.376,9.917,0.005,0.019,0.003
1.502,-0.358,9.946,0.007,0.016,0.002
1.505,-0.374,9.954,0.011,0.013,0
1.499,-0.364,9.959,0.003,0.019,0.001
1.474,-0.363,9.963,-0.004,0.025,0.005
1.499,-0.362,9.967,-0.012,0.031,0.006
1.477,-0.344,9.981,-0.004,0.02,0.004
1.51,-0.361,9.948,0.001,0.012,0.003
1.517,-0.397,9.953,-0.003,0.016,0.001
1.492,-0.389,9.954,0.004,0.009,-0.001
1.471,-0.394,9.946,0.016,0.002,-0.001
1.464,-0.378,9.924,0.011,0.005,0.003
1.455,-0.363,9.955,0.002,0.008,0.007
1.446,-0.344,9.974,0.004,0.001,0.005
1.442,-0.328,9.951,0,0.004,0.006
1.469,-0.333,9.951,0.003,0.002,-0.001
1.446,-0.329,9.919,0.008,-0.003,-0.004
1.451,-0.327,9.905,0.001,0.009,-0.005
1.463,-0.323,9.883,0.005,0.005,-0.003
1.463,-0.331,9.863,0.006,0.004,-0.003
1.478,-0.327,9.849,0.002,0.007,-0.003
1.488,-0.323,9.894,0.005,0.004,-0.007
1.5,-0.318,9.894,0.005,0.007,-0.009
1.491,-0.309,9.863,0.01,0.005,-0.007
1.478,-0.304,9.86,0.007,0.013,-0.002
1.469,-0.317,9.845,0.002,0.023,0.005
1.455,-0.292,9.866,0.013,0.012,0.003
1.457,-0.28,9.898,0.019,0.007,0.003
1.462,-0.269,9.881,0.017,0.009,0.004
1.456,-0.263,9.911,0.016,0.011,0.004
1.463,-0.28,9.913,0.008,0.021,0.001
1.452,-0.313,9.918,0.018,0.009,0
1.44,-0.322,9.935,0.013,0.013,0.001
1.449,-0.349,9.922,0.005,0.023,0.008
1.447,-0.368,9.927,0.005,0.023,0.009
1.481,-0.359,9.96,0.013,0.013,0.007
1.522,-0.366,9.966,0.006,0.021,0.009
1.508,-0.364,9.925,0.015,0.011,0.005
1.521,-0.395,9.974,0.006,0.021,0.005
1.496,-0.41,9.987,0.001,0.022,0.006
1.491,-0.428,9.995,0.004,0.018,0.005
1.449,-0.382,9.988,0.015,0.003,0.005
1.455,-0.352,9.991,-0.003,0.018,0.01
1.449,-0.301,9.987,0.013,-0.001,0.004
1.441,-0.304,9.97,0.018,-0.003,-0.002
1.423,-0.302,9.957,0.023,-0.008,-0.009
1.413,-0.305,9.941,0.009,0.006,-0.012
1.416,-0.303,9.979,0.012,-0.002,-0.012
1.431,-0.307,9.949,0.014,-0.008,-0.008
1.455,-0.292,9.932,0.002,0.004,-0.001
1.4,-0.276,9.871,0.005,0.002,-0.001
1.427,-0.27,9.929,0.012,-0.005,0.003
1.409,-0.267,9.91,0.011,-0.001,0.001
1.413,-0.258,9.902,0.019,-0.007,-0.005
1.423,-0.255,9.894,0.015,0.004,-0.005
1.398,-0.262,9.89,0.019,0.006,-0.008
1.416,-0.3,9.897,0.022,0.003,-0.008
1.376,-0.287,9.888,0.018,0.01,-0.009
1.388,-0.26,9.919,0.026,0.004,-0.007
1.38,-0.258,9.922,0.019,0.012,-0.01
1.378,-0.263,9.931,0.027,0.008,-0.02
1.398,-0.274,9.888,0.024,0.02,-0.028
1.456,-0.323,9.903,0.033,0.021,-0.039
1.415,-0.373,9.876,0.029,0.018,-0.039
1.402,-0.393,9.889,0.021,0.014,-0.037
1.403,-0.383,9.935,0.022,0.008,-0.037
1.428,-0.354,9.964,0.02,0.009,-0.034
1.411,-0.325,10.024,0.007,0.014,-0.03
1.478,-0.34,10.087,-0.006,0.018,-0.024
1.472,-0.383,10.053,-0.003,0.019,-0.029
1.483,-0.43,10.011,0.003,0.02,-0.036
1.497,-0.523,10.022,0.009,0.015,-0.03

0.606,9.725,1.864,0.015,-0.068,0.054
0.621,9.615,1.86,0.018,-0.064,0.051
0.673,9.61,1.908,0.014,-0.055,0.051
0.671,9.62,1.901,0.004,-0.04,0.052
0.693,9.608,1.925,0.005,-0.03,0.054
0.724,9.542,1.889,0.001,-0.017,0.053
0.78,9.561,1.888,-0.005,-0.005,0.05
0.781,9.606,1.875,-0.005,0.006,0.051
0.782,9.605,1.862,-0.006,0.021,0.054
0.78,9.604,1.902,-0.006,0.034,0.042
0.756,9.647,1.858,-0.014,0.051,0.035
0.734,9.684,1.882,-0.02,0.06,0.033
0.771,9.732,1.879,-0.013,0.06,0.028
0.799,9.784,1.896,-0.003,0.062,0.02
0.781,9.815,1.912,0.018,0.061,0.022
0.799,9.743,1.891,0.02,0.07,0.022
0.799,9.766,1.846,0.011,0.069,0.021
0.774,9.818,1.857,-0.007,0.064,0.028
0.784,9.835,1.893,-0.025,0.058,0.036
0.796,9.782,1.951,-0.035,0.051,0.035
0.774,9.758,1.962,-0.044,0.044,0.034
0.822,9.768,1.96,-0.037,0.032,0.032
0.826,9.79,1.889,-0.022,0.03,0.037
0.822,9.807,1.841,0,0.023,0.04
0.757,9.81,1.819,0.023,0.015,0.038
0.745,9.787,1.871,0.03,0.007,0.039
0.743,9.78,1.892,0.015,0.011,0.032
0.719,9.805,1.941,-0.002,0.009,0.027
0.705,9.794,1.953,-0.012,0.001,0.024
0.709,9.754,2.027,-0.018,0.002,0.025
0.712,9.737,1.996,-0.01,0.001,0.025
0.719,9.692,1.988,-0.002,0.004,0.032
0.71,9.632,1.963,0.002,0.005,0.037
0.739,9.588,2.024,-0.003,0,0.033
0.714,9.626,2.039,-0.021,-0.003,0.029
0.701,9.686,2.007,-0.034,-0.007,0.026
0.667,9.754,2.041,-0.04,-0.006,0.027
0.698,9.778,2.022,-0.032,-0.013,0.03
0.717,9.779,2.02,-0.02,-0.013,0.026
0.701,9.774,2.007,0.008,-0.034,0.016
0.67,9.742,1.963,0.011,-0.038,0.016
0.696,9.744,1.96,0.011,-0.042,0.018
0.736,9.739,1.906,0.002,-0.046,0.022
0.759,9.766,1.905,0.002,-0.052,0.022
0.746,9.788,1.865,0.012,-0.059,0.026
0.788,9.8,1.828,0.02,-0.055,0.029
0.785,9.814,1.842,0.012,-0.041,0.028
0.754,9.794,1.803,0.016,-0.038,0.025
0.775,9.77,1.838,0.024,-0.039,0.015
0.759,9.741,1.808,0.03,-0.041,0.01
0.8,9.731,1.835,0.035,-0.038,0.007
0.789,9.728,1.834,0.047,-0.033,0.005
0.786,9.718,1.812,0.064,-0.026,0.005
0.81,9.649,1.783,0.08,-0.024,0.009
0.781,9.627,1.756,0.069,-0.013,0.013
0.821,9.685,1.778,0.057,-0.01,0.008
0.817,9.772,1.773,0.034,-0.004,0.004
0.819,9.837,1.787,0.016,-0.006,-0.002
0.792,9.901,1.803,-0.006,0.001,-0.009
0.79,9.91,1.826,-0.016,0.009,-0.008
0.776,9.876,1.836,-0.003,0.003,-0.009
0.754,9.868,1.858,0.013,0,-0.013
0.757,9.842,1.888,0.014,0.007,-0.009
0.785,9.801,1.904,0.013,0.005,0
0.772,9.816,1.935,0.013,-0.005,0.006
0.819,9.832,1.937,-0.004,0.002,0.019
0.822,9.812,1.939,-0.014,0.004,0.026
0.867,9.766,1.932,-0.022,0.005,0.022
0.854,9.762,1.934,-0.014,-0.005,0.015
0.849,9.73,1.924,-0.007,-0.007,0.012
0.864,9.647,1.919,-0.006,-0.009,0.012
0.821,9.606,1.912,-0.005,-0.013,0.003
0.792,9.654,1.934,-0.008,-0.017,0.001
0.784,9.648,1.909,-0.008,-0.022,0.001
0.794,9.614,1.911,-0.014,-0.015,-0.004
0.784,9.637,1.945,-0.011,-0.023,-0.012
0.764,9.634,1.858,-0.004,-0.029,-0.011
0.794,9.669,1.863,-0.004,-0.022,-0.011
0.814,9.705,1.842,-0.002,-0.021,-0.012
0.808,9.741,1.804,0.004,-0.025,-0.016
0.818,9.774,1.835,0.011,-0.028,-0.025
0.788,9.804,1.768,0.017,-0.029,-0.031
0.809,9.854,1.804,0.024,-0.032,-0.04
0.768,9.882,1.851,0.016,-0.027,-0.035
0.741,9.875,1.812,0.003,-0.019,-0.031
0.765,9.891,1.851,-0.005,-0.019,-0.025
0.727,9.936,1.816,-0.014,-0.017,-0.014
0.769,9.961,1.802,-0.018,-0.011,0.002
0.798,9.993,1.799,-0.008,-0.012,0.011
0.845,9.96,1.841,0,-0.013,0.013
0.867,9.922,1.896,0.001,-0.008,0.015
0.882,9.87,1.87,0.007,-0.011,0.014
0.909,9.848,1.909,0.003,-0.014,0.011
0.85,9.828,1.875,-0.012,-0.009,0.006
0.859,9.831,1.948,-0.01,-0.016,0.009
0.823,9.827,1.931,-0.009,-0.005,0.011
0.812,9.807,1.913,-0.005,0.002,0.015
0.816,9.772,1.915,0.004,-0.002,0.015
0.83,9.742,1.883,0.005,-0.005,0.015
0.838,9.715,1.887,-0.004,-0.002,0.014
0.801,9.689,1.822,-0.021,0.002,0.016
0.794,9.688,1.841,-0.035,0.004,0.012
0.777,9.689,1.87,-0.042,0.002,0.007
0.769,9.704,1.884,-0.035,0.004,0.003

0.642,9.788,1.827,-0.009,-0.004,0.011
0.665,9.814,1.812,-0.003,-0.006,0.009
0.658,9.799,1.82,-0.003,-0.003,0.012
0.659,9.793,1.817,-0.005,0.001,0.012
0.644,9.785,1.823,-0.005,0.003,0.008
0.629,9.76,1.783,0,0,0.006
0.63,9.764,1.804,-0.005,0.006,0.005
0.641,9.745,1.8,-0.007,0.007,0.007
0.63,9.706,1.806,-0.007,0.006,0.003
0.64,9.718,1.801,-0.021,0.014,0.008
0.607,9.761,1.795,-0.025,0.018,0.01
0.647,9.806,1.836,-0.011,0.011,0.01
0.665,9.814,1.855,-0.007,0.01,0.009
0.659,9.77,1.818,-0.007,0.01,0.011
0.675,9.753,1.874,-0.001,0.005,0.007
0.685,9.746,1.844,-0.007,0.005,0.008
0.694,9.806,1.878,-0.009,0.002,0.003
0.679,9.796,1.839,-0.014,0.005,0.009
0.702,9.785,1.855,-0.006,-0.003,0.009
0.673,9.795,1.875,-0.005,0,0.006
0.686,9.823,1.855,-0.005,0,0.005
0.697,9.807,1.803,-0.001,-0.008,0.005
0.699,9.831,1.853,0.004,-0.012,0
0.688,9.826,1.82,0.005,-0.016,0
0.678,9.824,1.826,0.006,-0.015,0.002
0.691,9.814,1.821,0.006,-0.013,0.004
0.71,9.817,1.811,0.006,-0.012,0.007
0.682,9.819,1.818,0.001,-0.006,0.012
0.688,9.808,1.824,-0.002,-0.002,0.013
0.673,9.814,1.847,0.002,-0.004,0.011
0.675,9.804,1.832,-0.003,0.003,0.013
0.673,9.803,1.847,-0.004,0.006,0.017
0.672,9.802,1.868,-0.003,0.002,0.014
0.679,9.805,1.887,0.001,-0.002,0.012
0.664,9.769,1.855,0.002,0.002,0.013
0.703,9.737,1.871,0.004,-0.002,0.009
0.68,9.753,1.837,-0.002,0.002,0.007
0.681,9.771,1.842,-0.002,0.001,0.009
0.667,9.767,1.815,0,-0.002,0.01
0.667,9.77,1.866,0,-0.003,0.011
0.656,9.798,1.841,0.001,-0.006,0.008
0.659,9.806,1.855,-0.003,0.003,0.007
0.645,9.808,1.809,-0.006,0.011,0.008
0.647,9.764,1.844,-0.004,0.009,0.007
0.654,9.743,1.793,-0.002,0.006,0.006
0.662,9.764,1.814,0.002,0.002,0.007
0.662,9.754,1.819,0.003,0.003,0.009
0.69,9.756,1.822,-0.001,0.009,0.007
0.665,9.767,1.803,-0.001,0.011,0.001
0.661,9.787,1.829,0.002,0.01,-0.002
0.639,9.772,1.802,0.002,0.009,-0.002
0.65,9.795,1.8,-0.003,0.015,-0.003
0.657,9.809,1.856,0.002,0.013,-0.005
0.636,9.807,1.82,0.007,0.012,-0.001
0.632,9.782,1.828,0.008,0.009,0
0.627,9.774,1.814,0.004,0.008,0.005
0.67,9.812,1.865,-0.002,0.01,0.006
0.66,9.806,1.841,-0.007,0.01,0.009
0.701,9.806,1.845,-0.004,0.011,0.004
0.686,9.775,1.838,0.001,0.013,0
0.696,9.748,1.801,0.006,0.01,-0.003
0.65,9.792,1.805,0.009,0.005,-0.005
0.644,9.788,1.798,0.002,0.006,-0.005
0.637,9.796,1.83,0.002,-0.001,-0.012
0.636,9.813,1.861,-0.005,0.002,-0.012
0.626,9.83,1.865,0.003,-0.004,-0.013
0.634,9.831,1.836,0.007,-0.001,-0.008
0.666,9.824,1.837,0.009,0.001,-0.001
0.67,9.812,1.829,0.013,-0.003,0.003
0.696,9.813,1.833,0,0.004,0.009
0.68,9.831,1.83,-0.011,0.003,0.007
0.673,9.843,1.802,-0.015,0.001,0.005
0.679,9.869,1.848,-0.013,0.003,0.003
0.678,9.839,1.833,-0.003,-0.002,0.002
0.655,9.823,1.853,0.003,0.001,0.001
0.665,9.797,1.858,0.005,0.002,0
0.672,9.813,1.87,0.005,0.003,0.003
0.646,9.805,1.826,-0.007,0.006,0.009
0.664,9.791,1.839,-0.012,0.004,0.013
0.646,9.771,1.846,-0.014,0.004,0.013
0.651,9.763,1.802,-0.008,-0.004,0.011
0.651,9.782,1.811,-0.002,-0.004,0.009
0.645,9.78,1.797,-0.002,0.004,0.014
0.666,9.807,1.841,0.004,-0.001,0.011
0.645,9.796,1.808,0,0.003,0.007
0.632,9.792,1.837,-0.002,0.004,0.005
0.643,9.741,1.781,0.004,0,0.003
0.633,9.754,1.798,-0.006,0.006,0.005
0.634,9.763,1.78,-0.01,0.007,0.012
0.634,9.781,1.786,-0.007,0.006,0.017
0.644,9.803,1.791,-0.004,0.006,0.011
0.636,9.806,1.789,-0.009,0.013,0.008
0.636,9.823,1.789,-0.002,0.013,0.003
0.653,9.806,1.821,0.004,0.012,0.003
0.647,9.773,1.817,0.009,0.006,0.002
0.646,9.801,1.875,0.003,0.009,0.003
0.616,9.803,1.847,-0.005,0.017,0.015
0.651,9.818,1.86,0.002,0.009,0.015
0.653,9.807,1.857,-0.001,0.011,0.015
0.653,9.814,1.835,-0.004,0.014,0.018
0.664,9.805,1.814,-0.007,0.015,0.018
0.672,9.795,1.82,0.002,0.002,0.011
0.675,9.808,1.853,0.002,0.001,0.007
0.67,9.807,1.82,0.002,0.002,0.008

0.653,9.843,1.781,-0.002,0.008,0.008
0.632,9.82,1.791,0.002,0.004,0.007
0.647,9.826,1.803,0,0.009,0.005
0.62,9.848,1.805,0,0.01,0.006
0.629,9.839,1.81,-0.001,0.011,0.011
0.631,9.818,1.814,0.001,0.009,0.009
0.617,9.791,1.831,0.001,0.005,0.01
0.621,9.789,1.834,0.001,0.002,0.009
0.631,9.774,1.824,-0.004,0.006,0.014
0.655,9.775,1.844,0,0.002,0.012
0.635,9.761,1.849,-0.001,0.004,0.009
0.641,9.747,1.872,0.007,-0.002,0.009
0.641,9.726,1.811,0.007,0,0.008
0.662,9.722,1.819,0.006,-0.002,0.003
0.657,9.735,1.79,0.002,-0.005,0.006
0.66,9.753,1.82,0.002,-0.005,-0.002
0.634,9.738,1.75,0.004,-0.004,-0.004
0.634,9.779,1.778,0.013,-0.011,-0.007
0.628,9.796,1.805,0.01,-0.006,-0.009
0.633,9.809,1.757,0.008,-0.002,-0.011
0.636,9.789,1.789,0.01,0.001,-0.011
0.603,9.777,1.725,0.006,0.002,-0.007
0.592,9.803,1.788,-0.002,0.007,-0.005
0.63,9.818,1.753,0.005,-0.001,-0.006
0.621,9.825,1.788,0.004,0.008,-0.004
0.629,9.81,1.779,0.007,0.01,-0.004
0.647,9.789,1.8,0.009,0.011,-0.005
0.61,9.787,1.744,0.013,0.005,-0.007
0.64,9.779,1.732,0.011,0.004,-0.005
0.62,9.778,1.75,0.006,0.009,-0.004
0.632,9.786,1.754,0.009,0.003,-0.004
0.631,9.823,1.764,0.008,0.006,-0.004
0.63,9.807,1.761,0.016,0.002,-0.006
0.621,9.81,1.758,0.018,-0.001,-0.003
0.621,9.798,1.736,0.017,0.001,-0.007
0.579,9.818,1.781,0.012,0.005,-0.011
0.615,9.826,1.773,0.013,0.002,-0.005
0.611,9.797,1.787,0.012,0.006,-0.004
0.615,9.784,1.766,0.009,0.008,-0.001
0.612,9.789,1.776,0.015,0.007,-0.003
0.618,9.813,1.747,0.012,0.011,-0.004
0.612,9.817,1.73,0.007,0.012,-0.001
0.594,9.794,1.776,-0.005,0.013,-0.003
0.594,9.846,1.806,-0.005,0.008,-0.006
0.599,9.861,1.853,-0.008,0.011,-0.008
0.601,9.863,1.842,-0.001,0.008,-0.006
0.59,9.842,1.847,0.012,0.004,-0.005
0.622,9.839,1.814,0.013,0.013,0.004
0.62,9.788,1.805,0.015,0.009,0.007
0.625,9.812,1.777,0.005,0.01,0.008
0.606,9.869,1.786,0.001,0.005,0.008
0.595,9.863,1.77,-0.006,0.009,0.011
0.616,9.847,1.779,-0.004,0.009,0.005
0.6,9.835,1.795,0.003,0.001,0.003
0.579,9.867,1.777,0.003,0.006,0.004
0.596,9.85,1.789,0.003,0.011,0.01
0.596,9.836,1.789,0.001,0.007,0.014
0.584,9.824,1.765,0,0.002,0.015
0.584,9.829,1.766,-0.004,0.007,0.016
0.585,9.816,1.773,-0.007,0.008,0.018
0.585,9.829,1.75,-0.005,0.005,0.019
0.55,9.826,1.774,0,0.004,0.017
0.569,9.81,1.742,-0.003,0.009,0.016
0.57,9.814,1.77,-0.007,0.013,0.016
0.565,9.796,1.775,0,0.001,0.011
0.573,9.782,1.789,-0.006,0.007,0.012
0.547,9.768,1.784,-0.009,0.012,0.016
0.559,9.768,1.757,-0.005,0.008,0.015
0.577,9.756,1.734,-0.008,0.008,0.018
0.584,9.75,1.723,-0.012,0.012,0.016
0.584,9.737,1.734,-0.005,0.006,0.013
0.609,9.739,1.73,-0.006,0.006,0.012
0.617,9.772,1.743,-0.004,0.005,0.006
0.591,9.774,1.73,0.006,0.001,0
0.597,9.802,1.774,0.012,0.001,-0.001
0.588,9.757,1.766,0.011,0.009,-0.005
0.598,9.756,1.765,0.015,0.004,-0.007
0.571,9.764,1.748,-0.002,0.013,0
0.586,9.809,1.784,-0.003,0.009,0
0.592,9.808,1.777,-0.009,0.011,0.004
0.595,9.847,1.79,-0.004,0.008,0.004
0.624,9.877,1.792,-0.006,0.012,0.005
0.635,9.865,1.806,-0.004,0.01,0.005
0.655,9.837,1.777,0,0.009,0.004
0.657,9.814,1.778,0,0.007,0.002
0.661,9.815,1.811,-0.002,0.004,0.001
0.671,9.801,1.82,-0.011,0.009,0.005
0.652,9.8,1.8,-0.006,0.001,0.002
0.632,9.814,1.761,-0.003,-0.005,0.001
0.629,9.832,1.756,-0.008,-0.001,0.008
0.615,9.846,1.762,-0.01,0.001,0.007
0.735,9.809,1.715,-0.017,-0.001,0.015
0.58,9.794,1.706,-0.028,-0.015,0.054
0.44,9.906,1.83,-0.025,-0.018,0.032
0.611,9.878,1.774,-0.011,-0.002,0.001
0.65,9.848,1.741,-0.008,0.011,0.007
0.529,9.81,1.767,-0.006,0,0.004
0.607,9.78,1.797,0.002,-0.006,0.008
0.619,9.747,1.748,-0.001,0.008,0.01
0.629,9.759,1.746,-0.001,0.006,0.013
0.6,9.754,1.719,0,0.004,0.014
0.638,9.72,1.733,-0.004,0.009,0.007
0.636,9.729,1.775,-0.004,0.009,0
0.614,9.728,1.724,-0.004,0.014,-0.005

0.586,9.806,1.804,0.01,0.012,-0.004
0.584,9.805,1.781,0.002,0.024,0.001
0.633,9.784,1.768,0.003,0.026,0.001
0.617,9.815,1.791,0.004,0.026,-0.006
0.633,9.85,1.821,0.014,0.014,-0.008
0.608,9.843,1.813,0.007,0.024,-0.006
0.596,9.818,1.831,0.004,0.032,-0.009
0.595,9.807,1.873,0,0.037,-0.005
0.581,9.82,1.85,0.001,0.032,-0.005
0.582,9.829,1.888,0,0.03,-0.001
0.591,9.808,1.849,-0.001,0.028,0.006
0.586,9.839,1.877,-0.007,0.032,0.007
0.592,9.873,1.85,-0.011,0.035,0.011
0.593,9.877,1.867,-0.01,0.036,0.009
0.556,9.877,1.894,-0.006,0.026,0.004
0.556,9.873,1.881,-0.014,0.028,0.002
0.563,9.84,1.907,-0.019,0.025,0.002
0.506,9.828,1.901,-0.027,0.029,0.007
0.512,9.807,1.93,-0.023,0.023,0.013
0.507,9.789,1.924,-0.021,0.017,0.017
0.52,9.784,1.871,-0.024,0.014,0.016
0.523,9.797,1.845,-0.022,0.007,0.018
0.499,9.782,1.883,-0.02,0.005,0.011
0.517,9.74,1.85,-0.025,0.005,0.004
0.488,9.755,1.873,-0.026,0.004,-0.002
0.449,9.767,1.851,-0.024,0.004,-0.005
0.475,9.772,1.879,-0.023,0.01,-0.006
0.486,9.736,1.885,-0.015,0.003,-0.004
0.494,9.719,1.855,-0.024,0.01,0
0.501,9.726,1.904,-0.032,0.013,0.004
0.496,9.743,1.858,-0.039,0.006,0.007
0.546,9.743,1.908,-0.047,0.011,0.003
0.54,9.755,1.878,-0.045,0.015,0
0.542,9.733,1.86,-0.033,0.011,-0.002
0.558,9.71,1.853,-0.024,0.004,-0.007
0.548,9.745,1.846,-0.024,0.005,-0.014
0.531,9.781,1.866,-0.026,0,-0.015
0.537,9.782,1.851,-0.026,0,-0.016
0.531,9.796,1.879,-0.018,-0.008,-0.018
0.498,9.771,1.847,-0.015,-0.005,-0.016
0.494,9.766,1.812,-0.006,-0.009,-0.016
0.501,9.798,1.861,-0.008,-0.008,-0.014
0.499,9.852,1.813,-0.007,-0.01,-0.007
0.497,9.811,1.833,-0.008,-0.005,-0.006
0.489,9.791,1.849,-0.004,-0.005,-0.01
0.508,9.766,1.858,-0.011,0.003,-0.009
0.491,9.774,1.876,-0.011,0.007,-0.013
0.501,9.757,1.853,-0.014,0.017,-0.01
0.496,9.72,1.872,-0.011,0.015,-0.007
0.535,9.732,1.894,-0.013,0.018,-0.007
0.553,9.763,1.935,-0.007,0.009,-0.004
0.526,9.775,1.893,-0.011,0.012,0
0.559,9.781,1.941,-0.01,0.008,0.003
0.545,9.81,1.916,-0.006,0.009,0
0.555,9.797,1.956,0,0.01,-0.01
0.529,9.766,1.906,-0.001,0.014,-0.012
0.54,9.795,1.961,-0.007,0.019,-0.011
0.52,9.795,1.967,-0.005,0.01,-0.01
0.558,9.781,1.982,-0.006,0.006,-0.008
0.54,9.767,1.984,-0.006,0.004,-0.005
0.545,9.786,1.946,-0.015,0.013,-0.001
0.532,9.788,1.971,-0.014,0.017,-0.001
0.54,9.81,1.951,-0.008,0.009,-0.002
0.522,9.825,1.938,-0.008,0.008,-0.002
0.532,9.816,1.948,-0.005,0,-0.005
0.542,9.811,1.913,-0.011,0.006,-0.003
0.513,9.822,1.921,-0.006,0.002,-0.006
0.522,9.831,1.94,-0.005,0.003,-0.004
0.515,9.792,1.956,-0.007,0.006,0.002
0.536,9.763,1.926,-0.008,0.006,0.004
0.525,9.766,1.94,-0.016,0.011,0.005
0.491,9.76,1.877,-0.016,0.009,0.002
0.502,9.756,1.906,-0.007,-0.002,-0.002
0.475,9.748,1.895,-0.001,-0.007,-0.003
0.494,9.759,1.926,-0.004,0.001,-0.004
0.458,9.738,1.925,-0.004,0.003,-0.009
0.472,9.709,1.913,0.002,-0.005,-0.015
0.459,9.738,1.913,-0.01,0.004,-0.011
0.437,9.736,1.875,-0.015,0.004,-0.009
0.433,9.756,1.893,-0.02,0.007,-0.007
0.447,9.781,1.893,-0.023,0.005,-0.003
0.474,9.757,1.88,-0.02,0.008,-0.005
0.469,9.784,1.918,-0.012,0.002,-0.011
0.46,9.806,1.884,-0.022,0.017,-0.011
0.45,9.837,1.892,-0.008,0.008,-0.011
0.497,9.821,1.907,0,0.004,-0.007
0.478,9.837,1.911,0,0.008,-0.008
0.47,9.831,1.9,0.003,0.008,-0.004
0.487,9.808,1.888,0,0.008,-0.002
0.486,9.805,1.878,-0.002,0,-0.002
0.516,9.831,1.912,-0.015,0.008,0.004
0.496,9.843,1.887,-0.02,0.012,0.007
0.513,9.846,1.928,-0.008,0.003,0.011
0.503,9.836,1.907,-0.002,0.007,0.012
0.504,9.8,1.918,0.012,0.003,0.006
0.477,9.778,1.876,0.014,0.004,0.005
0.474,9.777,1.89,0.009,0.003,0.007
0.48,9.787,1.921,-0.001,0.007,0.007
0.47,9.787,1.934,-0.006,0.006,0.009
0.477,9.811,1.962,-0.006,0.002,0.011
0.47,9.816,1.928,-0.005,0.003,0.011
0.47,9.806,1.901,-0.007,0.007,0.013
0.462,9.814,1.898,0,0.001,0.007
0.487,9.807,1.912,-0.002,0.004,0.011

0.358,9.744,2.014,0,0.002,0
0.37,9.754,2.047,-0.001,0.002,0.001
0.357,9.752,2.054,-0.004,0.003,-0.006
0.334,9.793,2.026,-0.004,0.002,-0.011
0.318,9.829,2.045,0.002,0.001,-0.009
0.325,9.849,2.007,-0.004,0.015,0
0.314,9.843,2.037,-0.007,0.017,0.001
0.313,9.836,2.014,-0.009,0.018,0.005
0.349,9.828,2.039,-0.013,0.016,0.011
0.337,9.871,2.045,-0.014,0.013,0.01
0.359,9.848,2.045,-0.008,0.009,0.014
0.331,9.838,2.04,-0.001,0.008,0.014
0.357,9.805,2.02,0.005,0.007,0.016
0.353,9.766,2.022,0.007,0.009,0.015
0.321,9.763,2.021,0.004,0.005,0.017
0.36,9.744,2.043,-0.003,0.003,0.02
0.326,9.753,2.05,-0.005,0.006,0.021
0.346,9.717,2.051,0.001,-0.001,0.018
0.315,9.708,2.021,-0.001,0.003,0.014
0.327,9.71,2.057,-0.001,0.005,0.015
0.271,9.709,2.013,0.002,0.003,0.014
0.276,9.737,1.98,0.006,-0.001,0.014
0.241,9.804,2.01,0,0.003,0.014
0.278,9.783,2.036,-0.004,0.004,0.013
0.308,9.753,2.032,-0.004,0.007,0.006
0.284,9.751,2.06,-0.006,0.011,0.008
0.311,9.725,2.048,-0.013,0.017,0.013
0.313,9.696,2.019,-0.014,0.018,0.016
0.314,9.715,2.026,-0.014,0.016,0.018
0.328,9.715,2.004,-0.017,0.016,0.023
0.363,9.723,2.062,-0.005,0.003,0.019
0.334,9.744,2.045,-0.01,0.005,0.013
0.328,9.762,2.022,-0.008,0.005,0.009
0.342,9.766,2.064,-0.003,0.003,0.003
0.359,9.764,2.078,0.007,-0.005,-0.001
0.343,9.763,2.053,0.009,-0.006,0.002
0.338,9.757,2.009,0.006,-0.005,0.006
0.337,9.761,2.03,0.007,-0.011,0.008
0.359,9.778,1.991,0.004,-0.006,0.009
0.372,9.766,2.017,-0.001,0.001,0.009
0.391,9.76,2.023,0.006,-0.006,0.007
0.376,9.746,2.028,0,0,0.004
0.383,9.768,2.017,0.006,-0.004,0
0.389,9.742,1.996,0.005,0.002,0
0.378,9.745,2.006,0.001,0.006,0
0.356,9.748,2.028,-0.004,0.007,0
0.364,9.754,1.992,0.001,0,0.002
0.342,9.793,2.027,-0.003,0.009,0.002
0.351,9.833,2.011,0.004,0.002,0.003
0.356,9.842,2.037,0.003,0.005,0.005
0.334,9.839,2.019,0.006,0.006,0.007
0.337,9.826,2.027,0.007,0.004,0.009
0.356,9.803,2.026,0.012,0.001,0.007
0.361,9.78,2.041,0.001,0.007,0.008
0.34,9.756,2.022,0.003,0.002,0.009
0.356,9.739,2.058,0.004,0.001,0.013
0.362,9.701,2.012,0.009,0,0.01
0.362,9.697,2.039,0.005,0.006,0.007
0.362,9.713,2.013,0.006,0.002,0.009
0.359,9.723,2.004,-0.004,0.011,0.009
0.343,9.749,2.022,-0.005,0.013,0.002
0.31,9.74,1.992,-0.008,0.017,-0.001
0.332,9.747,2.009,-0.003,0.011,-0.003
0.321,9.756,2.003,0.001,0.013,-0.002
0.309,9.757,1.986,0.002,0.016,0
0.33,9.736,1.956,0.002,0.015,0.001
0.318,9.744,2.015,0.007,0.008,0.002
0.315,9.739,1.958,0.007,0.006,-0.001
0.326,9.77,2.005,0.002,0.01,0.002
0.322,9.779,1.98,0.002,0.011,-0.001
0.329,9.776,1.99,0.006,0.011,-0.001
0.314,9.773,1.965,0.01,0.009,-0.003
0.294,9.789,2.005,0.01,0.011,-0.004
0.305,9.784,1.985,0.017,0.005,-0.004
0.317,9.784,2.006,0.01,0.009,-0.002
0.297,9.8,1.992,0.004,0.014,-0.004
0.309,9.804,2.011,0.009,0.006,-0.002
0.295,9.783,2.001,0.008,0.007,0
0.333,9.796,2.037,0.004,0.009,-0.001
0.305,9.811,2.018,-0.003,0.017,0.002
0.335,9.801,2.037,0.001,0.011,0.004
0.347,9.801,2.03,-0.002,0.011,0.004
0.336,9.793,2.035,0.001,0.009,0.002
0.318,9.787,2.025,0.012,-0.002,0.002
0.359,9.773,2.05,0.007,0.001,0.004
0.322,9.793,2.038,0.014,-0.007,0.001
0.327,9.798,2.015,0.012,-0.004,0.005
0.325,9.804,2.057,0.005,0.004,0.01
0.328,9.776,2.024,0.002,0.006,0.014
0.339,9.763,2.039,0.015,-0.009,0.009
0.313,9.732,1.974,0.01,-0.008,0.011
0.338,9.76,1.985,0,0.002,0.012
0.291,9.764,1.959,-0.003,0.008,0.011
0.312,9.75,1.98,0.007,-0.007,0.01
0.311,9.741,1.969,0,-0.001,0.01
0.3,9.762,1.992,-0.002,0.001,0.005
0.305,9.768,1.973,0,-0.001,0.006
0.299,9.754,1.997,0.005,-0.008,0.004
0.288,9.703,1.988,0.002,-0.009,0.002
0.289,9.729,1.995,0.001,-0.006,0
0.288,9.726,1.964,-0.002,-0.002,0.002
0.3,9.757,1.984,-0.001,-0.001,0.003
0.273,9.756,1.959,0.003,-0.008,-0.002
0.301,9.767,2.007,-0.001,-0.009,-0.005

0.254,9.789,2.093,-0.012,-0.002,0.01
0.265,9.79,2.073,-0.01,-0.008,0.014
0.265,9.807,2.069,-0.016,-0.001,0.015
0.257,9.782,2.086,-0.019,0.004,0.012
0.285,9.783,2.118,-0.01,-0.001,0.012
0.243,9.757,2.076,-0.005,-0.006,0.007
0.263,9.781,2.126,-0.006,-0.009,0.006
0.251,9.758,2.071,-0.016,0.006,0.008
0.275,9.759,2.115,-0.011,0.004,0.006
0.241,9.756,2.07,-0.008,0.002,0.012
0.244,9.765,2.082,-0.008,-0.002,0.016
0.232,9.78,2.114,-0.013,0.001,0.019
0.247,9.794,2.086,-0.009,-0.003,0.018
0.242,9.772,2.089,-0.011,0.003,0.017
0.262,9.729,2.052,-0.013,0.005,0.015
0.226,9.701,2.055,-0.011,0.006,0.01
0.219,9.694,2.035,-0.022,0.014,0.014
0.205,9.693,2.063,-0.011,0.002,0.011
0.185,9.729,2.1,-0.015,0.005,0.014
0.196,9.738,2.112,-0.016,0.007,0.011
0.198,9.74,2.113,-0.019,0.012,0.012
0.188,9.75,2.092,-0.014,0.01,0.011
0.213,9.744,2.101,-0.007,0.004,0.011
0.206,9.725,2.078,-0.008,0.009,0.015
0.203,9.746,2.054,-0.002,0.004,0.013
0.223,9.754,2.105,0.001,0.002,0.012
0.231,9.757,2.089,-0.008,0.007,0.012
0.224,9.752,2.129,0.003,-0.006,0.008
0.207,9.722,2.118,-0.002,0.002,0.011
0.221,9.744,2.098,-0.006,0.005,0.015
0.211,9.765,2.094,0,0,0.012
0.207,9.757,2.075,-0.002,0.002,0.01
0.212,9.747,2.106,0.004,-0.004,0.005
0.195,9.749,2.114,0.007,-0.007,0.003
0.207,9.749,2.138,0.001,-0.005,0.007
0.201,9.749,2.115,0.005,-0.006,0.011
0.238,9.746,2.107,0,0.003,0.012
0.24,9.749,2.103,-0.006,0.004,0.014
0.237,9.743,2.127,-0.013,0.008,0.018
0.267,9.73,2.1,-0.006,-0.002,0.015
0.262,9.742,2.093,-0.004,-0.005,0.011
0.284,9.713,2.087,-0.004,-0.005,0.009
0.279,9.753,2.106,-0.008,0.005,0.005
0.259,9.749,2.073,0.001,-0.003,0.002
0.248,9.749,2.129,-0.004,0,0.002
0.243,9.762,2.118,0.005,-0.008,-0.001
0.205,9.755,2.119,-0.002,0,0.001
0.225,9.767,2.13,0.01,-0.009,0.001
0.23,9.738,2.107,0.007,-0.006,0.006
0.207,9.708,2.081,0.004,-0.01,0.008
0.238,9.712,2.137,0.003,-0.011,0.009
0.217,9.731,2.118,-0.005,-0.002,0.01
0.274,9.713,2.108,0.001,-0.006,0.009
0.255,9.727,2.123,0,0,0.003
0.257,9.737,2.133,0.002,0.005,0
0.258,9.702,2.103,0.003,0.009,-0.001
0.268,9.719,2.119,0.01,-0.001,-0.005
0.23,9.726,2.118,0.002,0.004,-0.001
0.259,9.716,2.102,0.002,0.002,0.003
0.257,9.716,2.102,-0.003,0.006,0.001
0.261,9.726,2.079,-0.006,0.01,0.003
0.272,9.737,2.081,0,0.007,-0.004
0.281,9.738,2.092,-0.008,0.016,-0.002
0.27,9.758,2.098,-0.011,0.017,-0.006
0.249,9.757,2.087,0,0.007,-0.007
0.257,9.789,2.104,-0.004,0.012,0.001
0.22,9.792,2.117,0.004,0.002,0.001
0.247,9.782,2.105,0.008,-0.001,0.002
0.221,9.78,2.102,-0.004,0.007,0.009
0.271,9.766,2.112,0,0.005,0.009
0.251,9.754,2.102,0.004,0.005,0.003
0.267,9.734,2.079,0.009,0,0.006
0.253,9.723,2.064,0.014,-0.005,0.002
0.262,9.743,2.075,0.005,0.003,0.003
0.228,9.757,2.078,0.007,0.002,0.003
0.236,9.773,2.069,0.004,0.004,0.007
0.226,9.792,2.079,0.015,-0.003,0.005
0.232,9.78,2.06,0.006,0.007,0.009
0.213,9.796,2.085,0.012,0.002,0.008
0.192,9.759,2.052,0.013,0.006,0.01
0.222,9.75,2.083,0.011,0.009,0.012
0.221,9.746,2.077,0.008,0.01,0.009
0.25,9.755,2.144,0.009,0.007,0.011
0.213,9.735,2.122,0.003,0.014,0.01
0.244,9.711,2.116,0.006,0.013,0.009
0.255,9.726,2.12,0.009,0.012,0.008
0.238,9.725,2.09,0.011,0.016,0.009
0.26,9.723,2.102,0.007,0.014,0.015
0.21,9.736,2.106,-0.003,0.015,0.015
0.213,9.752,2.095,-0.002,0.005,0.007
0.203,9.797,2.116,-0.003,0.004,0.003
0.181,9.794,2.093,-0.005,0.011,0.007
0.194,9.789,2.126,0.004,0.007,0.009
0.174,9.728,2.072,0.007,0.009,0.004
0.22,9.709,2.072,0.004,0.011,0.009
0.234,9.729,2.035,0.003,0.007,0.005
0.214,9.744,2.06,-0.008,0.013,0.007
0.211,9.763,2.06,-0.005,0.008,0.004
0.196,9.759,2.089,-0.007,0.012,0.005
0.195,9.768,2.114,-0.004,0.014,-0.002
0.197,9.767,2.08,-0.007,0.018,-0.001
0.179,9.797,2.148,-0.009,0.02,-0.001
0.218,9.766,2.13,-0.009,0.019,0
0.225,9.758,2.132,-0.017,0.025,0.008

0.26,9.777,2.075,-0.014,0.004,0.031
0.253,9.758,2.064,-0.02,0.005,0.032
0.261,9.756,2.038,-0.017,0.004,0.026
0.249,9.755,2.055,-0.007,-0.003,0.017
0.229,9.728,2.043,-0.009,0.003,0.02
0.254,9.705,2.07,-0.006,0,0.018
0.25,9.7,2.053,0.004,-0.009,0.01
0.223,9.692,2.029,-0.002,-0.002,0.012
0.227,9.665,2.033,-0.008,0.003,0.015
0.23,9.678,2.046,-0.005,0.001,0.016
0.202,9.669,1.988,-0.003,-0.001,0.012
0.196,9.679,1.989,0.003,-0.006,0.011
0.216,9.68,1.97,-0.002,0.002,0.011
0.227,9.666,1.975,-0.003,0.007,0.007
0.209,9.69,1.936,0.002,0.009,-0.001
0.233,9.705,1.968,-0.003,0.014,-0.001
0.224,9.729,1.959,0.005,0.014,-0.007
0.249,9.764,1.994,0.003,0.023,-0.004
0.243,9.774,2.032,0.005,0.024,-0.003
0.268,9.744,2.011,0.006,0.026,-0.003
0.271,9.765,2.031,-0.001,0.031,-0.004
0.272,9.773,1.996,0,0.027,0.002
0.282,9.792,2.049,-0.001,0.032,0.008
0.278,9.806,2.019,0.007,0.025,0.005
0.273,9.808,2.076,0.006,0.028,0.004
0.279,9.832,2.074,0.019,0.016,0.003
0.268,9.813,2.118,0.022,0.015,0
0.249,9.813,2.12,0.027,0.01,-0.002
0.266,9.8,2.123,0.027,0.007,0.002
0.224,9.785,2.097,0.027,0.006,0.004
0.258,9.789,2.081,0.013,0.013,0.012
0.252,9.814,2.115,0.007,0.012,0.014
0.404,9.751,2.088,-0.007,0.011,0.027
0.252,9.703,2.131,-0.014,-0.014,0.068
0.116,9.849,2.204,-0.021,-0.013,0.056
0.248,9.872,2.16,-0.01,0.004,0.032
0.334,9.787,2.129,0.002,0.015,0.015
0.287,9.729,2.124,-0.002,0.003,0.009
0.219,9.722,2.155,-0.007,0,0.008
0.258,9.71,2.149,-0.008,0.004,0.015
0.238,9.761,2.132,-0.011,0.004,0.016
0.21,9.763,2.112,-0.009,-0.003,0.011
0.217,9.749,2.095,-0.012,0.002,0.011
0.23,9.745,2.109,-0.009,-0.003,0.007
0.236,9.723,2.098,-0.004,-0.016,0
0.192,9.746,2.101,-0.01,-0.017,0.001
0.193,9.696,2.055,-0.017,-0.013,0.004
0.213,9.739,2.081,-0.025,-0.007,0.007
0.198,9.781,2.053,-0.017,-0.013,0.005
0.215,9.756,2.077,-0.006,-0.017,0.004
0.207,9.722,2.029,-0.006,-0.012,0.006
0.222,9.708,2.046,-0.012,-0.007,0.001
0.244,9.708,2.009,-0.021,-0.005,0.004
0.243,9.703,2.04,-0.017,-0.005,0
0.267,9.726,2.05,-0.017,-0.003,-0.001
0.278,9.726,2.069,-0.015,0.001,-0.003
0.274,9.733,2.013,-0.012,0.007,-0.003
0.279,9.722,2.038,-0.005,0.001,-0.004
0.253,9.72,2.014,-0.012,0.007,-0.004
0.276,9.751,2.029,-0.012,0.006,-0.006
0.245,9.759,1.994,-0.013,0.006,-0.001
0.274,9.775,2.038,-0.012,0.007,-0.005
0.285,9.8,2.036,-0.004,0.004,-0.003
0.295,9.794,2.029,-0.002,0.008,-0.002
0.287,9.761,1.984,-0.001,0.014,0
0.298,9.766,2.015,-0.001,0.016,-0.003
0.262,9.791,2.047,-0.001,0.018,-0.001
0.298,9.772,2.061,0.003,0.014,0.001
0.258,9.769,2.058,-0.002,0.018,0.002
0.266,9.793,2.059,-0.001,0.018,0.001
0.231,9.822,2.067,-0.007,0.024,0.011
0.27,9.787,2.079,0.004,0.012,0.013
0.257,9.789,2.057,0.012,0.006,0.007
0.274,9.765,2.068,0.004,0.016,0.009
0.246,9.755,2.07,0.01,0.01,0.003
0.258,9.754,2.07,0.013,0.005,0.003
0.241,9.766,2.095,0.003,0.009,0.008
0.256,9.737,2.06,0.012,0,0.005
0.239,9.729,2.105,0.003,0.009,0.006
0.226,9.746,2.092,0.001,0.008,0.007
0.238,9.738,2.083,0.005,0.004,0.007
0.196,9.736,2.099,0,0.01,0.007
0.223,9.738,2.079,0.002,0.005,0.006
0.212,9.731,2.123,0.002,0.002,0.001
0.222,9.72,2.104,0.002,0.003,0.001
0.212,9.737,2.112,-0.004,0.006,0.002
0.207,9.763,2.102,-0.002,0.003,0.005
0.171,9.767,2.137,0.002,-0.001,0.004
0.186,9.732,2.095,-0.002,0,0.006
0.179,9.79,2.129,-0.013,0.007,0.006
0.177,9.764,2.096,-0.011,0,0.007
0.179,9.751,2.074,0,-0.01,0.005
0.215,9.733,2.095,0.003,-0.009,0.005
0.181,9.731,2.056,0.003,-0.007,0.001
0.227,9.691,2.075,0.003,-0.002,0.002
0.2,9.671,2.061,0.006,-0.008,-0.005
0.216,9.697,2.034,0,-0.006,-0.011
0.208,9.695,2.026,-0.01,0,-0.008
0.226,9.718,2.064,-0.014,0.002,-0.007
0.221,9.729,2.075,-0.022,0.01,-0.001
0.217,9.753,2.049,-0.016,0.008,-0.001
0.227,9.761,2.051,-0.012,0.006,-0.005
0.212,9.794,2.036,-0.003,-0.003,-0.007
0.256,9.792,2.044,-0.007,0.002,-0.002

0.16,9.73,2.105,-0.01,0.003,0.005
0.165,9.767,2.111,-0.013,0.004,0.007
0.173,9.766,2.137,-0.009,0.001,0.006
0.18,9.756,2.112,0,-0.004,0.002
0.211,9.733,2.133,0.002,-0.003,0.005
0.203,9.743,2.105,0.002,-0.003,0.006
0.192,9.73,2.157,0.003,0,0.003
0.183,9.733,2.113,0,0.002,0.007
0.201,9.728,2.154,-0.006,0.001,0.005
0.218,9.733,2.106,-0.002,-0.003,0.002
0.219,9.739,2.13,0.006,-0.002,0.004
0.203,9.712,2.069,0.004,0.008,0.008
0.197,9.731,2.093,0.006,0,0.003
0.165,9.748,2.065,-0.005,0.01,0.004
0.179,9.779,2.099,0,0.005,-0.003
0.159,9.788,2.102,-0.004,0.01,-0.004
0.152,9.769,2.096,-0.001,0.012,-0.003
0.141,9.748,2.09,0.005,0.012,0.001
0.147,9.718,2.057,0.003,0.022,0.007
0.184,9.755,2.129,0.011,0.012,0.008
0.182,9.763,2.108,0.009,0.009,0.008
0.162,9.768,2.106,0.006,0.009,0.007
0.19,9.776,2.157,0.005,0.009,0.003
0.179,9.793,2.199,0.006,0.008,-0.001
0.213,9.791,2.236,0,0.021,0.004
0.195,9.745,2.184,0.015,0.01,0.007
0.221,9.714,2.212,0.013,0.013,0.011
0.205,9.732,2.23,0,0.013,0.017
0.222,9.755,2.195,-0.011,0.007,0.02
0.219,9.747,2.191,-0.013,0.004,0.02
0.205,9.765,2.224,-0.012,0.002,0.014
0.204,9.77,2.185,-0.001,-0.008,0.01
0.213,9.787,2.191,0.005,-0.012,0.007
0.179,9.774,2.136,-0.002,-0.003,0.007
0.19,9.767,2.186,-0.007,-0.004,0.007
0.174,9.763,2.171,0,-0.02,0.002
0.15,9.75,2.168,-0.006,-0.012,0.006
0.151,9.727,2.148,-0.015,-0.003,0.012
0.158,9.719,2.118,-0.011,-0.005,0.015
0.175,9.741,2.139,-0.012,-0.003,0.016
0.174,9.758,2.121,-0.015,0,0.017
0.191,9.778,2.14,-0.013,-0.007,0.016
0.172,9.759,2.132,-0.021,0.004,0.012
0.197,9.737,2.122,-0.019,0,0.008
0.183,9.743,2.137,-0.013,-0.004,0.007
0.17,9.707,2.127,-0.016,0.005,0.012
0.212,9.662,2.165,-0.013,0.002,0.013
0.19,9.678,2.135,-0.012,0,0.011
0.204,9.684,2.127,-0.007,-0.004,0.012
0.237,9.646,2.104,-0.013,-0.005,0.016
0.222,9.67,2.071,-0.009,-0.012,0.009
0.197,9.738,2.117,-0.015,-0.002,0.007
0.199,9.759,2.1,-0.003,-0.009,0.001
0.205,9.746,2.121,0,-0.003,-0.005
0.173,9.754,2.111,0.002,0.002,-0.006
0.168,9.772,2.115,0.013,-0.005,-0.005
0.183,9.749,2.125,0.006,-0.004,0.001
0.196,9.733,2.113,-0.006,0.003,0.008
0.168,9.755,2.148,-0.003,-0.005,0.011
0.213,9.742,2.121,-0.007,0.007,0.015
0.206,9.713,2.138,0.01,-0.004,0.011
0.244,9.703,2.11,0.012,0,0.01
0.22,9.712,2.124,0.009,0.003,0.004
0.238,9.686,2.148,0.003,0.009,0
0.247,9.696,2.128,0.007,0.003,0
0.237,9.724,2.151,0.002,0.013,0.001
0.198,9.749,2.139,0.003,0.011,0.004
0.22,9.759,2.125,0.007,0.006,0.006
0.189,9.778,2.126,0.007,0.007,0.005
0.209,9.786,2.102,0.006,0.009,0.004
0.207,9.801,2.145,0.004,0.013,0.003
0.189,9.786,2.132,0.01,0.004,0.004
0.177,9.764,2.148,0.018,-0.004,0
0.174,9.763,2.15,0.012,0.004,0.005
0.183,9.751,2.189,0.017,-0.004,0.004
0.167,9.741,2.157,0.011,0.001,0.008
0.174,9.728,2.12,0.006,0.007,0.012
0.217,9.695,2.141,0.017,-0.001,0.009
0.21,9.681,2.096,0.016,-0.001,0.007
0.22,9.681,2.134,0.006,0.007,0.004
0.203,9.703,2.168,0.001,0.013,0.001
0.208,9.712,2.137,0.005,0.009,-0.005
0.208,9.738,2.156,0.002,0.01,-0.003
0.202,9.734,2.148,-0.005,0.015,0.002
0.202,9.772,2.162,-0.005,0.013,0.004
0.196,9.783,2.139,-0.008,0.016,0.006
0.22,9.787,2.167,-0.004,0.013,0.002
0.211,9.751,2.159,0,0.01,-0.004
0.221,9.755,2.193,0.002,0.011,-0.007
0.21,9.718,2.142,-0.007,0.017,-0.005
0.197,9.72,2.149,-0.015,0.023,-0.001
0.181,9.74,2.141,-0.005,0.009,-0.002
0.17,9.749,2.118,-0.012,0.012,0.002
0.165,9.786,2.127,-0.013,0.008,0.008
0.158,9.825,2.158,0,-0.003,0.002
0.145,9.804,2.134,-0.003,0.002,0.001
0.148,9.791,2.125,-0.006,0.01,0.002
0.144,9.759,2.124,-0.003,0.007,-0.002
0.138,9.719,2.138,0,0,-0.002
0.137,9.688,2.102,-0.006,0.004,0
0.147,9.707,2.137,-0.012,0.009,0.006
0.145,9.718,2.105,-0.016,0.014,0.009
0.17,9.7,2.118,-0.009,0.007,0.005
0.169,9.717,2.078,-0.016,0.018,0.003

0.143,9.795,2.148,0.007,0.008,0.004
0.123,9.806,2.161,0.004,0.008,0.003
0.137,9.826,2.164,0.004,0.009,0.006
0.141,9.813,2.153,0.018,-0.007,0.006
0.149,9.782,2.125,0.012,-0.001,0.012
0.155,9.769,2.15,0.016,-0.005,0.014
0.178,9.728,2.144,0.023,-0.014,0.012
0.168,9.687,2.141,0.01,0,0.017
0.184,9.663,2.118,0.007,0.004,0.014
0.181,9.684,2.193,-0.003,0.011,0.015
0.178,9.721,2.196,0.003,0.003,0.01
0.157,9.711,2.197,0.004,-0.003,0.007
0.142,9.743,2.185,-0.002,-0.002,0.008
0.123,9.757,2.158,-0.01,0.003,0.011
0.159,9.76,2.204,-0.004,-0.002,0.005
0.16,9.738,2.149,-0.007,-0.001,0.007
0.173,9.715,2.157,0.006,-0.01,0.001
0.179,9.692,2.133,-0.002,-0.004,0.002
0.189,9.697,2.088,-0.001,-0.009,-0.004
0.157,9.706,2.108,-0.012,0.001,0.002
0.156,9.718,2.118,-0.007,-0.006,-0.001
0.141,9.749,2.132,-0.015,-0.002,0.002
0.125,9.78,2.102,-0.01,-0.006,0
0.143,9.79,2.156,-0.014,0,0.004
0.143,9.802,2.113,0.002,-0.011,0
0.155,9.793,2.131,-0.007,0.004,0.005
0.187,9.759,2.077,-0.004,0.004,0.007
0.184,9.754,2.105,-0.006,0.002,0.005
0.183,9.789,2.105,-0.011,0.003,0.008
0.201,9.798,2.143,-0.006,-0.003,0.009
0.224,9.783,2.141,-0.01,0.001,0.011
0.2,9.769,2.138,-0.002,-0.001,0.01
0.222,9.76,2.15,0.004,-0.005,0.01
0.182,9.741,2.088,0.011,-0.013,0.008
0.194,9.74,2.129,0.003,-0.001,0.01
0.2,9.747,2.105,0.001,0,0.01
0.166,9.737,2.093,-0.002,0,0.008
0.181,9.752,2.09,-0.013,0.011,0.013
0.165,9.779,2.102,-0.005,0.001,0.013
0.154,9.785,2.088,0,-0.002,0.013
0.146,9.799,2.109,-0.007,0.01,0.015
0.156,9.778,2.087,0.004,0.004,0.012
0.156,9.761,2.114,0.007,0.004,0.009
0.164,9.714,2.085,-0.005,0.019,0.012
0.201,9.687,2.13,-0.003,0.014,0.011
0.172,9.693,2.107,0.004,0.004,0.011
0.156,9.698,2.103,-0.007,0.016,0.016
0.18,9.709,2.159,-0.007,0.016,0.018
0.183,9.726,2.158,-0.006,0.015,0.015
0.175,9.724,2.099,0.002,0.009,0.013
0.181,9.708,2.137,0.001,0.01,0.008
0.17,9.719,2.11,-0.005,0.011,0.006
0.154,9.745,2.125,0.002,0.004,0.004
0.164,9.741,2.136,-0.002,0.012,0.008
0.166,9.75,2.148,-0.002,0.012,0.009
0.146,9.75,2.106,0.005,0.001,0.008
0.156,9.746,2.115,0.012,-0.005,0.006
0.152,9.741,2.106,-0.001,0.005,0.013
0.16,9.753,2.103,0.005,-0.002,0.007
0.152,9.73,2.107,-0.002,0.012,0.008
0.183,9.71,2.121,0.007,0.006,0
0.157,9.707,2.136,0.011,0.007,-0.002
0.182,9.722,2.155,0.005,0.013,0.003
0.148,9.688,2.121,0.002,0.016,0.004
0.175,9.699,2.137,0.007,0.007,0.005
0.181,9.73,2.158,-0.006,0.012,0.012
0.197,9.765,2.158,-0.009,0.01,0.011
0.178,9.753,2.138,-0.004,0.007,0.008
0.184,9.774,2.158,0.001,0.005,0.003
0.154,9.778,2.082,-0.003,0.012,0.005
0.172,9.798,2.112,0.007,0,0.003
0.137,9.798,2.105,0.013,-0.008,-0.002
0.155,9.773,2.09,0.014,-0.008,0.001
0.168,9.772,2.101,0.011,-0.003,0.002
0.153,9.774,2.094,0.013,-0.007,0.001
0.15,9.796,2.089,0.007,-0.004,0.011
0.181,9.781,2.089,0.001,0,0.015
0.159,9.771,2.102,0.008,-0.003,0.009
0.142,9.743,2.032,-0.001,0.013,0.013
0.154,9.728,2.07,0.007,0.005,0.011
0.181,9.684,2.073,0.003,0.011,0.017
0.19,9.685,2.104,0.008,0.004,0.008
0.16,9.686,2.078,0.014,0,0.006
0.178,9.684,2.054,0.012,0.005,0.005
0.162,9.668,2.072,0.018,-0.001,0
0.178,9.683,2.074,0.009,0.009,-0.002
0.185,9.696,2.101,0.012,0.008,-0.007
0.164,9.728,2.069,0.017,0.004,-0.007
0.168,9.73,2.117,0.017,0.005,-0.009
0.169,9.706,2.089,-0.002,0.026,-0.004
0.171,9.757,2.125,0.006,0.021,-0.01
0.17,9.779,2.133,-0.001,0.027,-0.002
0.187,9.8,2.149,0.002,0.019,0.004
0.189,9.835,2.181,-0.006,0.026,0.004
0.202,9.853,2.164,0.003,0.015,0.006
0.194,9.842,2.17,-0.002,0.018,0.006
0.184,9.854,2.159,0.002,0.012,0.004
0.203,9.865,2.175,0.006,0.004,0.005
0.163,9.837,2.177,-0.006,0.012,0.01
0.166,9.845,2.181,-0.008,0.004,0.007
0.147,9.83,2.185,-0.013,0.007,0.009
0.152,9.767,2.146,-0.004,-0.003,0.011
0.132,9.74,2.129,-0.012,0.004,0.014
0.133,9.739,2.149,-0.011,-0.003,0.017

0.158,9.835,2.136,-0.002,-0.011,0.018
0.153,9.81,2.109,0.006,-0.011,0.017
0.144,9.783,2.106,0.007,-0.005,0.026
0.142,9.774,2.087,0.007,-0.002,0.032
0.123,9.769,2.099,0.016,-0.012,0.031
0.112,9.751,2.057,0.009,-0.005,0.031
0.098,9.744,2.082,-0.001,-0.001,0.034
0.088,9.754,2.042,-0.001,-0.001,0.034
0.094,9.763,2.064,-0.002,0.002,0.036
0.1,9.716,2.038,0.005,0.002,0.033
0.074,9.73,2.035,0,0.01,0.035
0.096,9.735,2.04,0,0.007,0.03
0.055,9.735,2.013,-0.008,0.009,0.033
0.06,9.755,2.007,-0.016,0.012,0.037
0.071,9.749,1.997,-0.015,0.007,0.034
0.077,9.754,2.042,-0.004,-0.003,0.028
0.073,9.757,2.017,-0.006,0.003,0.03
0.08,9.745,2.004,-0.002,0,0.029
0.055,9.735,1.975,0,-0.002,0.029
0.067,9.688,1.99,0.002,-0.006,0.031
0.089,9.679,1.984,-0.001,-0.007,0.032
0.077,9.674,1.947,-0.009,-0.001,0.032
0.081,9.643,1.97,0,-0.004,0.024
0.079,9.642,1.937,0.006,-0.005,0.024
0.061,9.606,1.925,0.011,-0.004,0.023
0.08,9.601,1.907,0.016,-0.006,0.019
0.054,9.618,1.932,0.006,0.001,0.016
0.067,9.646,1.908,0.002,0.002,0.011
0.066,9.688,1.975,0.01,-0.005,0.003
0.047,9.693,1.935,0.006,0.004,-0.001
0.109,9.668,1.928,0.013,0.008,-0.009
0.108,9.668,1.938,0.017,0.01,-0.014
0.114,9.695,1.935,0.026,0.002,-0.015
0.128,9.723,1.964,0.024,0.006,-0.012
0.13,9.759,1.961,0.023,0.004,-0.013
0.13,9.817,2.003,0.023,0.004,-0.016
0.148,9.828,1.982,0.021,0.007,-0.019
0.138,9.852,2.071,0.012,0.019,-0.019
0.162,9.863,2.054,0.023,0.006,-0.024
0.179,9.861,2.095,0.027,0.004,-0.026
0.204,9.849,2.089,0.01,0.019,-0.017
0.213,9.851,2.079,0.005,0.021,-0.01
0.241,9.865,2.114,-0.007,0.028,0
0.253,9.856,2.084,0.007,0.007,-0.001
0.246,9.873,2.118,-0.003,0.012,0.001
0.255,9.895,2.099,-0.001,0.009,0.004
0.257,9.891,2.078,0.001,0.001,0.01
0.228,9.885,2.078,0.006,-0.007,0.004
0.194,9.889,2.119,0.005,-0.009,0.002
0.2,9.865,2.04,-0.001,-0.008,0.007
0.174,9.82,2.057,-0.001,-0.011,0.007
0.173,9.801,2.017,0.009,-0.015,0.009
0.156,9.764,1.991,0.01,-0.012,0.015
0.156,9.733,1.967,0.004,-0.008,0.019
0.167,9.742,1.979,-0.002,-0.005,0.019
0.134,9.751,1.977,-0.003,-0.009,0.017
0.12,9.783,1.937,-0.004,-0.009,0.017
0.089,9.817,1.973,-0.003,-0.008,0.015
0.072,9.834,1.954,-0.001,-0.002,0.013
0.069,9.782,1.977,0.002,0.003,0.016
0.036,9.763,1.988,0.009,-0.004,0.015
0.036,9.734,1.961,0.001,0.004,0.016
0.027,9.741,1.957,0.004,0.001,0.017
0.052,9.708,1.966,0,0.005,0.017
0.076,9.69,1.969,0.009,0,0.017
0.101,9.665,1.967,0.02,-0.004,0.013
0.12,9.695,1.982,0.02,-0.001,0.01
0.11,9.722,2.032,0.01,0.006,0.008
0.129,9.729,2.046,0.004,0.006,0.003
0.112,9.745,2.058,0.004,0.002,0.003
0.104,9.732,2.076,0.011,-0.008,0.003
0.112,9.762,2.058,0.002,0,0.012
0.111,9.746,2.052,0.009,-0.012,0.008
0.113,9.768,1.98,0.01,-0.011,0.007
0.128,9.781,2.004,0.011,-0.016,0.004
0.109,9.758,2.014,0.009,-0.016,-0.001
0.107,9.765,1.997,0.021,-0.026,-0.008
0.127,9.704,1.972,0.022,-0.022,-0.008
0.159,9.666,1.922,0.028,-0.02,-0.01
0.157,9.662,1.916,0.028,-0.014,-0.008
0.18,9.687,1.893,0.024,-0.007,-0.003
0.174,9.735,1.912,0.018,0,0.002
0.115,9.796,1.918,0.013,-0.004,0.007
0.081,9.85,1.97,0.001,-0.001,0.013
0.097,9.911,1.981,-0.002,-0.001,0.011
0.06,9.876,1.967,-0.006,0.008,0.015
0.11,9.842,1.936,0.006,0.01,0.016
0.141,9.764,1.928,0.02,0.005,0.015
0.158,9.701,1.902,0.022,0.009,0.017
0.177,9.689,1.878,0.025,0.004,0.015
0.191,9.712,1.883,0.026,0.001,0.013
0.175,9.758,1.84,0.026,0.001,0.003
0.125,9.799,1.891,0.017,0.012,0
0.161,9.843,1.919,0.016,0.012,0.001
0.162,9.876,1.962,0.014,0.012,0
0.142,9.922,1.917,0.017,0.013,0.003
0.157,9.945,1.934,0.022,0.019,0.006
0.161,9.93,1.947,0.026,0.021,0.008
0.137,9.888,1.944,0.022,0.017,0.013
0.157,9.878,1.963,0.014,0.017,0.015
0.17,9.85,2.002,-0.001,0.026,0.016
0.239,9.822,2.007,-0.001,0.021,0.015
0.252,9.772,1.971,-0.002,0.029,0.017
0.26,9.776,1.957,0.002,0.036,0.019

0.167,9.726,1.954,-0.006,0.005,0.011
0.149,9.737,1.92,-0.008,0.001,0.013
0.16,9.758,1.935,-0.014,0.006,0.015
0.163,9.758,1.926,-0.008,0.001,0.009
0.142,9.768,1.928,-0.004,0.002,0.007
0.13,9.762,1.883,0.001,-0.001,0.008
0.123,9.782,1.913,-0.003,0.005,0.006
0.112,9.788,1.872,-0.001,0.002,0.01
0.096,9.81,1.919,-0.004,0.003,0.014
0.124,9.805,1.934,0.002,-0.003,0.009
0.138,9.797,1.93,0.002,0.001,0.008
0.145,9.771,1.9,-0.005,0.012,0.013
0.16,9.729,1.907,0.011,-0.002,0.006
0.148,9.723,1.907,0.002,0.007,0.006
0.15,9.728,1.895,0,0.007,0.01
0.147,9.752,1.905,0.003,0.004,0.01
0.163,9.771,1.929,-0.011,0.016,0.013
0.138,9.782,1.945,-0.013,0.018,0.008
0.164,9.79,1.919,-0.006,0.013,0.006
0.158,9.781,1.949,-0.01,0.021,0.006
0.152,9.793,1.943,0.001,0.01,0.002
0.143,9.815,1.996,0.005,0.001,0.001
0.151,9.811,1.956,0.002,0.002,0.007
0.173,9.79,1.975,-0.008,0.011,0.013
0.17,9.768,1.973,-0.009,0.01,0.014
0.193,9.753,1.95,-0.004,0.004,0.009
0.17,9.764,1.925,-0.007,0.005,0.01
0.21,9.762,1.942,-0.003,0.001,0.007
0.183,9.754,1.959,0.006,-0.009,0.004
0.182,9.772,1.973,-0.003,0,0.005
0.144,9.778,1.95,-0.008,-0.005,0.005
0.142,9.824,1.953,-0.013,0,0.008
0.147,9.817,1.94,-0.004,-0.009,0.006
0.127,9.808,1.945,-0.007,-0.009,0.007
0.159,9.8,1.971,-0.015,0.003,0.009
0.167,9.787,1.95,-0.007,-0.005,0.01
0.175,9.792,1.929,0.004,-0.012,0.005
0.182,9.748,1.884,-0.005,0.002,0.006
0.204,9.74,1.907,-0.008,0.005,0.005
0.164,9.748,1.907,-0.003,-0.005,0
0.19,9.759,1.933,-0.018,0.006,0.003
0.179,9.784,1.955,-0.021,0.007,0
0.148,9.803,1.965,-0.015,0.003,0.001
0.148,9.799,1.971,-0.01,0.002,0.002
0.186,9.777,1.979,-0.012,0.004,0.006
0.192,9.778,1.932,-0.009,-0.001,0.006
0.201,9.785,1.939,-0.019,0.005,0.011
0.198,9.782,1.928,-0.017,0.004,0.006
0.215,9.76,1.913,-0.008,-0.001,0.005
0.213,9.764,1.941,-0.011,0.007,0.004
0.214,9.781,1.919,-0.005,0.003,-0.003
